onset	duration	stage	RT	SearchEvidence	SearchValue	SearchCosts	OfferValue	Choice_isForage	ExcludeBlock	ExpValueLeft	ExpValueRight	Choice_isLeft
6.018278035	2.7	forage	3.34	-10.68117466	316.6666667	40	221.6579397	1	n/a	n/a	n/a	n/a
18.73387113	2.7	forage	5.625	-72.3572892	308.3333333	40	269.5	0	n/a	n/a	n/a	n/a
32.96380881	1.8	engage	2.866	n/a	n/a	n/a	n/a	n/a	0	262.15	72	1
44.79627345	2.7	forage	4.882	153.9283487	373.3333333	20	57.19684624	1	n/a	n/a	n/a	n/a
58.84514729	2.7	forage	4.551	-8.292594269	275	20	206.3630099	0	n/a	n/a	n/a	n/a
66.74460665	1.8	engage	1.643	n/a	n/a	n/a	n/a	n/a	0	294.5	120.25	1
79.91018644	2.7	forage	3.616	186.3040139	320	5	30.28610231	1	n/a	n/a	n/a	n/a
90.22656229	2.7	forage	4.435	-94.38489848	196.6666667	5	252.4389618	0	n/a	n/a	n/a	n/a
99.92540639	1.8	engage	2.008	n/a	n/a	n/a	n/a	n/a	0	205	202.3	1
111.5744008	2.7	forage	2.629	173.1104321	278.3333333	20	25.59501534	1	n/a	n/a	n/a	n/a
124.0901562	2.7	forage	2.651	-127.3917409	203.3333333	5	280.5	0	n/a	n/a	n/a	n/a
131.1229772	1.8	engage	1.818	n/a	n/a	n/a	n/a	n/a	0	8.7	178.5	0
143.2420582	2.7	forage	2.981	-45.81269554	345	20	275	0	n/a	n/a	n/a	n/a
151.7214096	1.8	engage	4.33	n/a	n/a	n/a	n/a	n/a	0	33.25	190	0
165.1398359	2.7	forage	3.411	-69.18391932	236.6666667	40	262.0330466	0	n/a	n/a	n/a	n/a
172.7198103	1.8	engage	2.662	n/a	n/a	n/a	n/a	n/a	0	269.5	158.7	1
183.3355973	2.7	forage	4.269	-0.391048405	275	40	197.9560133	1	n/a	n/a	n/a	n/a
193.6181521	2.7	forage	4.308	-90.16717134	225	20	248.2812484	0	n/a	n/a	n/a	n/a
202.3175897	1.8	engage	4.608	n/a	n/a	n/a	n/a	n/a	0	97.2	191.1	0
216.6497378	2.7	forage	2.78	-42.42147612	226.6666667	20	228.4144661	0	n/a	n/a	n/a	n/a
223.5158571	1.8	engage	1.872	n/a	n/a	n/a	n/a	n/a	0	169	117	0
234.1317493	2.7	forage	4.256	-110.2790805	220	20	280.5	0	n/a	n/a	n/a	n/a
241.4645365	1.8	engage	1.676	n/a	n/a	n/a	n/a	n/a	0	31.5	303.45	0
250.063838	2.7	forage	2.461	241.7041916	458.3333333	5	20.56254716	1	n/a	n/a	n/a	n/a
261.8629717	2.7	forage	2.381	-44.83777644	301.6666667	5	276.3162819	0	n/a	n/a	n/a	n/a
271.6622885	1.8	engage	4.47	n/a	n/a	n/a	n/a	n/a	0	247.2	153.4	1
284.7778443	2.7	forage	3.1	-44.01844307	258.3333333	5	242.4216086	1	n/a	n/a	n/a	n/a
296.043688	2.7	forage	2.721	-94.22608521	231.6666667	5	267.5205976	0	n/a	n/a	n/a	n/a
302.976474	1.8	engage	1.692	n/a	n/a	n/a	n/a	n/a	0	378.35	230	1
316.092136	2.7	forage	4.562	127.7877873	316.6666667	20	96.43078819	1	n/a	n/a	n/a	n/a
326.6913127	2.7	forage	2.482	-134.1887682	200	5	276.3096424	0	n/a	n/a	n/a	n/a
332.3409543	1.8	engage	2.384	n/a	n/a	n/a	n/a	n/a	0	208	177.6	1
343.4240042	2.7	forage	2.645	-31.33376088	260	5	213.5629998	0	n/a	n/a	n/a	n/a
350.1729278	1.8	engage	1.857	n/a	n/a	n/a	n/a	n/a	0	177.6	203.7	0
360.1720145	2.7	forage	4.05	-77.02996999	276.6666667	20	275	0	n/a	n/a	n/a	n/a
369.4213746	1.8	engage	1.553	n/a	n/a	n/a	n/a	n/a	0	295	36.9	1
378.6706459	2.7	forage	3.431	-120.7589306	173.3333333	5	253.3654494	0	n/a	n/a	n/a	n/a
386.5534035	1.8	engage	1.645	n/a	n/a	n/a	n/a	n/a	0	195.75	373.65	0
396.4026253	2.7	forage	3.827	8.248386231	250	5	167.5454203	1	n/a	n/a	n/a	n/a
408.8517377	2.7	forage	4.424	59.04580085	280	20	126.0819878	1	n/a	n/a	n/a	n/a
419.5008556	2.7	forage	4.288	-54.7419999	255	20	219.9742719	0	n/a	n/a	n/a	n/a
428.0668378	1.8	engage	2.801	n/a	n/a	n/a	n/a	n/a	0	35.1	202	0
439.0327394	2.7	forage	3.357	-160.2026256	156.6666667	40	284.7221719	0	n/a	n/a	n/a	n/a
448.7986617	1.8	engage	1.495	n/a	n/a	n/a	n/a	n/a	0	123.3	265	0
458.0312554	2.7	forage	2.934	153.9909629	321.6666667	20	77.74611438	1	n/a	n/a	n/a	n/a
466.8805205	2.7	forage	2.62	-119.0964355	195	20	269.843871	0	n/a	n/a	n/a	n/a
474.6466112	1.8	engage	1.462	n/a	n/a	n/a	n/a	n/a	0	345.6	207.5	1
483.8792149	2.7	forage	4.237	-43.3255185	278.3333333	5	209.1120416	0	n/a	n/a	n/a	n/a
494.4284982	1.8	engage	1.361	n/a	n/a	n/a	n/a	n/a	0	288	120.95	1
503.7943675	2.7	forage	4.474	-75.97144845	256.6666667	20	262.5038982	0	n/a	n/a	n/a	n/a
512.4770587	1.8	engage	3.697	n/a	n/a	n/a	n/a	n/a	0	327.6	70	1
524.1928317	2.7	forage	4.637	-36.44404037	263.3333333	20	232.560837	0	n/a	n/a	n/a	n/a
533.0755256	1.8	engage	3.787	n/a	n/a	n/a	n/a	n/a	0	234	215.6	0
547.8914578	2.7	forage	2.499	217.4336838	403.3333333	5	25.59501534	1	n/a	n/a	n/a	n/a
558.859696	2.7	forage	4.339	-30.56243482	271.6666667	40	242.3809416	0	n/a	n/a	n/a	n/a
566.4062534	1.8	engage	1.991	n/a	n/a	n/a	n/a	n/a	0	150.5	252	0
579.455246	2.7	forage	4.662	-77.61518703	241.6666667	20	253.8197022	0	n/a	n/a	n/a	n/a
587.2213681	1.8	engage	1.671	n/a	n/a	n/a	n/a	n/a	0	105.35	147.2	1
598.9037667	2.7	forage	2.414	16.85591436	338.3333333	40	212.6827121	1	n/a	n/a	n/a	n/a
610.4695282	2.7	forage	2.792	8.683034053	303.3333333	20	212.7355515	0	n/a	n/a	n/a	n/a
617.6524081	1.8	engage	2.29	n/a	n/a	n/a	n/a	n/a	0	284.95	267.75	1
630.9516614	2.7	forage	2.215	-32.20645004	235	5	221.3727177	1	n/a	n/a	n/a	n/a
640.418	2.7	forage	2.484	-130.7497812	175	20	265.3370303	0	n/a	n/a	n/a	n/a
647.3000767	1.8	engage	1.577	n/a	n/a	n/a	n/a	n/a	0	163.2	246.4	0
660.9490336	2.7	forage	2.415	79.7348859	326.6666667	5	132	1	n/a	n/a	n/a	n/a
670.3982822	2.7	forage	2.966	-13.21040189	255	40	203.0581963	0	n/a	n/a	n/a	n/a
676.4812502	1.8	engage	2.437	n/a	n/a	n/a	n/a	n/a	0	243	154	1
688.3302547	2.7	forage	2.379	-113.0762118	213.3333333	5	270.9133846	0	n/a	n/a	n/a	n/a
693.9964911	1.8	engage	2.816	n/a	n/a	n/a	n/a	n/a	0	461.1	291.9	1
708.596699	2.7	forage	4.563	143.9770954	385	20	88	1	n/a	n/a	n/a	n/a
722.4610444	2.7	forage	2.986	-49.03232064	266.6666667	20	245.5853327	0	n/a	n/a	n/a	n/a
731.7102831	1.8	engage	3.567	n/a	n/a	n/a	n/a	n/a	0	400.2	236.5	1
745.209438	2.7	forage	4.123	-124.8725282	183.3333333	5	270.2004678	0	n/a	n/a	n/a	n/a
753.5919853	1.8	engage	3.927	n/a	n/a	n/a	n/a	n/a	0	234.9	272.95	0
768.641158	2.7	forage	3.309	-59.6096977	306.6666667	40	266.8381118	0	n/a	n/a	n/a	n/a
778.3900726	1.8	engage	1.711	n/a	n/a	n/a	n/a	n/a	0	169.05	98.4	1
789.7572756	2.7	forage	2.659	147.8436112	431.6666667	40	99	1	n/a	n/a	n/a	n/a
798.8217479	2.7	forage	2.686	-35.47976292	311.6666667	40	258.4455007	0	n/a	n/a	n/a	n/a
804.988023	1.8	engage	1.569	n/a	n/a	n/a	n/a	n/a	0	243.6	350	0
816.1704236	2.7	forage	3.186	-132.5277669	176.6666667	40	259.43949	0	n/a	n/a	n/a	n/a
825.7531636	1.8	engage	2.292	n/a	n/a	n/a	n/a	n/a	0	216.45	163.2	1
836.8203709	2.7	forage	2.489	31.25298023	270	40	177.8225441	1	n/a	n/a	n/a	n/a
846.4014948	2.7	forage	4.364	-76.20076958	218.3333333	5	245.3208591	0	n/a	n/a	n/a	n/a
853.8675715	1.8	engage	3.442	n/a	n/a	n/a	n/a	n/a	0	211.2	256.5	1
866.0343851	2.7	forage	3.781	227.2021662	475	5	36.65089784	1	n/a	n/a	n/a	n/a
875.6658886	2.7	forage	3.074	-27.01688379	328.3333333	20	270.8417333	0	n/a	n/a	n/a	n/a
883.0487596	1.8	engage	2.837	n/a	n/a	n/a	n/a	n/a	0	418.3	364.65	1
894.1500295	2.7	forage	4.601	45.63396375	335	40	170.1295709	1	n/a	n/a	n/a	n/a
905.8484145	2.7	forage	4.847	1.894047918	293.3333333	5	202.4869222	0	n/a	n/a	n/a	n/a
917.096184	1.8	engage	1.58	n/a	n/a	n/a	n/a	n/a	0	88.45	236	0
927.6131324	2.7	forage	2.715	157.0893433	268.3333333	20	40.42545647	1	n/a	n/a	n/a	n/a
937.3278449	2.7	forage	2.501	-110.8214912	150	5	231.3986469	0	n/a	n/a	n/a	n/a
945.2106141	1.8	engage	2.052	n/a	n/a	n/a	n/a	n/a	0	331.1	180.4	1
955.1597767	2.7	forage	4.509	49.812942	336.6666667	20	167.8879081	1	n/a	n/a	n/a	n/a
967.213308	2.7	forage	4.362	-5.302474725	330	5	214.0905639	1	n/a	n/a	n/a	n/a
981.1750162	2.7	forage	2.519	-39.85486478	310	20	237.3836075	0	n/a	n/a	n/a	n/a
989.0072773	1.8	engage	1.925	n/a	n/a	n/a	n/a	n/a	0	241.5	343.1	0
998.7064664	2.7	forage	3.737	-17.52495515	301.6666667	20	233.8508375	0	n/a	n/a	n/a	n/a
1007.805757	1.8	engage	3.464	n/a	n/a	n/a	n/a	n/a	0	182.7	253.7	0
1025.207499	2.7	forage	2.417	-60.34576061	295	20	259.8959559	0	n/a	n/a	n/a	n/a
1032.9206	1.8	engage	3.429	n/a	n/a	n/a	n/a	n/a	0	267.75	176.4	1
1045.119543	2.7	forage	3.373	-63.10274131	275	5	240.4341834	0	n/a	n/a	n/a	n/a
1054.685601	1.8	engage	1.52	n/a	n/a	n/a	n/a	n/a	0	172.5	116	1
1065.319007	2.7	forage	3.774	26.76692487	343.3333333	20	218.5805291	1	n/a	n/a	n/a	n/a
1076.018959	2.7	forage	4.051	-36.33900709	345	40	269.5	1	n/a	n/a	n/a	n/a
1085.866391	2.7	forage	2.892	-60.52866053	323.3333333	20	289.0190383	0	n/a	n/a	n/a	n/a
1093.265883	1.8	engage	3.906	n/a	n/a	n/a	n/a	n/a	0	44.25	116.6	0
1106.998125	2.7	forage	4.976	-24.56307027	236.6666667	20	206.9713546	0	n/a	n/a	n/a	n/a
1120.147293	1.8	engage	1.85	n/a	n/a	n/a	n/a	n/a	0	330.05	229.5	1
1131.096278	2.7	forage	3.654	231.6219741	451.6666667	40	25.32334893	1	n/a	n/a	n/a	n/a
1141.862162	2.7	forage	4.823	-7.7669299	320	20	249.6924199	1	n/a	n/a	n/a	n/a
1154.411763	2.7	forage	4.37	-9.568227621	323.3333333	40	252.637317	0	n/a	n/a	n/a	n/a
1162.293936	1.8	engage	1.302	n/a	n/a	n/a	n/a	n/a	0	322.5	126	1
1173.010222	2.7	forage	4.676	246.4871804	461.6666667	20	20.30222323	1	n/a	n/a	n/a	n/a
1183.592244	2.7	forage	3.659	-23.71341649	313.3333333	20	265.3682913	0	n/a	n/a	n/a	n/a
1191.49175	1.8	engage	2.256	n/a	n/a	n/a	n/a	n/a	0	282.9	152.5	1
1200.724342	2.7	forage	3.442	-58.46146907	248.3333333	5	233.8500075	0	n/a	n/a	n/a	n/a
1210.423674	1.8	engage	1.557	n/a	n/a	n/a	n/a	n/a	0	288.1	144.9	1
1222.841469	2.7	forage	2.19	235.710526	420	5	15.14305115	1	n/a	n/a	n/a	n/a
1231.355257	2.7	forage	2.571	-38.79785557	285	20	262.511091	0	n/a	n/a	n/a	n/a
1237.404918	1.8	engage	1.399	n/a	n/a	n/a	n/a	n/a	0	371.8	294.1	1
1245.55419	2.7	forage	4.507	143.0029324	303.3333333	40	57.20348574	1	n/a	n/a	n/a	n/a
1257.603332	2.7	forage	3.562	23.28168268	265	5	169.8828027	1	n/a	n/a	n/a	n/a
1269.852348	2.7	forage	2.728	33.98626159	261.6666667	40	159.9014134	1	n/a	n/a	n/a	n/a
1278.518332	2.7	forage	4.391	-106.6071391	195	5	252.7712137	0	n/a	n/a	n/a	n/a
1286.367821	1.8	engage	1.623	n/a	n/a	n/a	n/a	n/a	0	130	249.55	0
1299.883359	2.7	forage	2.745	-8.938064819	336.6666667	5	220	1	n/a	n/a	n/a	n/a
1308.882703	2.7	forage	2.323	-35.20136479	278.3333333	40	232.7055229	0	n/a	n/a	n/a	n/a
1315.282234	1.8	engage	2.411	n/a	n/a	n/a	n/a	n/a	0	277.2	273.7	1
1326.816591	2.7	forage	2.709	154.4332093	258.3333333	20	20.30581963	1	n/a	n/a	n/a	n/a
1336.163945	2.7	forage	3.673	73.75885184	211.6666667	40	98.26135506	1	n/a	n/a	n/a	n/a
1348.029625	2.7	forage	2.592	51.48060124	226.6666667	40	121	1	n/a	n/a	n/a	n/a
1361.129692	2.7	forage	3.694	70.52082055	233.3333333	5	104.5	1	n/a	n/a	n/a	n/a
1374.094374	2.7	forage	2.487	57.8237815	206.6666667	5	111.3992757	1	n/a	n/a	n/a	n/a
1384.093541	2.7	forage	3.583	154.4503982	258.3333333	20	20.30581963	1	n/a	n/a	n/a	n/a
1394.976101	2.7	forage	4.276	-155.9739617	158.3333333	20	275.9782204	0	n/a	n/a	n/a	n/a
1403.708765	1.8	engage	1.514	n/a	n/a	n/a	n/a	n/a	0	79.2	331.5	0
1417.061503	2.7	forage	4.681	200.5509532	280	40	15.14305115	1	n/a	n/a	n/a	n/a
1428.040252	2.7	forage	3.485	-103.5842278	186.6666667	20	269.0393843	0	n/a	n/a	n/a	n/a
1434.689779	1.8	engage	4.356	n/a	n/a	n/a	n/a	n/a	0	120.05	61.8	1
1445.822185	2.7	forage	3.791	30.8170414	201.6666667	5	118.4437906	0	n/a	n/a	n/a	n/a
1453.721673	1.8	engage	3.493	n/a	n/a	n/a	n/a	n/a	0	59.4	74.55	0
1470.072501	2.7	forage	3.414	196.8233506	363.3333333	5	25.60110155	1	n/a	n/a	n/a	n/a
1480.636241	2.7	forage	3.729	-1.351379039	276.6666667	40	211.4873246	1	n/a	n/a	n/a	n/a
1494.851769	2.7	forage	4.102	-48.19463642	295	40	253	0	n/a	n/a	n/a	n/a
1504.117798	1.8	engage	2.568	n/a	n/a	n/a	n/a	n/a	0	154.1	21.8	1
1515.603017	2.7	forage	3.693	12.47522425	201.6666667	5	141.6845481	1	n/a	n/a	n/a	n/a
1529.668875	2.7	forage	4.625	102.1847861	245	20	67.47590664	1	n/a	n/a	n/a	n/a
1543.648036	2.7	forage	2.918	83.88280603	230	5	85.83137166	1	n/a	n/a	n/a	n/a
1552.88062	2.7	forage	2.587	23.50930704	225	20	137.3423118	1	n/a	n/a	n/a	n/a
1562.679923	2.7	forage	2.334	-155.9270795	166.6666667	5	270.090086	0	n/a	n/a	n/a	n/a
1569.1961	1.8	engage	4.299	n/a	n/a	n/a	n/a	n/a	0	107.5	120	1
1584.91441	2.7	forage	2.691	11.38249082	328.3333333	5	198	1	n/a	n/a	n/a	n/a
1596.860564	2.7	forage	2.553	41.57042067	300	5	171.8646949	1	n/a	n/a	n/a	n/a
1605.810015	2.7	forage	4.052	-63.20288718	256.6666667	40	243.6698355	0	n/a	n/a	n/a	n/a
1615.775831	1.8	engage	3.014	n/a	n/a	n/a	n/a	n/a	0	284.4	324	0
1626.578362	2.7	forage	3.517	-22.87670976	205	5	176	0	n/a	n/a	n/a	n/a
1634.574461	1.8	engage	3.374	n/a	n/a	n/a	n/a	n/a	0	26	272	0
1649.456613	2.7	forage	3.075	-121.500176	178.3333333	5	249.6924199	0	n/a	n/a	n/a	n/a
1657.639361	1.8	engage	1.895	n/a	n/a	n/a	n/a	n/a	0	281.75	279.3	1
1669.540717	2.7	forage	2.562	-127.6447429	168.3333333	40	251.9653438	0	n/a	n/a	n/a	n/a
1677.254484	1.8	engage	1.432	n/a	n/a	n/a	n/a	n/a	0	259.9	83.4	1
1688.786855	2.7	forage	4.579	191.0866154	291.6666667	40	20.56254716	1	n/a	n/a	n/a	n/a
1705.018963	2.7	forage	4.188	-120.2534799	155	5	254.1585936	0	n/a	n/a	n/a	n/a
1714.451597	1.8	engage	1.666	n/a	n/a	n/a	n/a	n/a	0	142.5	104.5	1
1725.819539	2.7	forage	3.9	91.62395252	205	40	51.40636789	0	n/a	n/a	n/a	n/a
1735.216719	1.8	engage	1.517	n/a	n/a	n/a	n/a	n/a	0	29	19.5	0
1748.900806	2.7	forage	2.547	180.6009004	400	5	50.53410291	1	n/a	n/a	n/a	n/a
1760.734942	2.7	forage	2.84	-47.4354459	281.6666667	40	250.6438056	0	n/a	n/a	n/a	n/a
1768.014237	1.8	engage	3.518	n/a	n/a	n/a	n/a	n/a	0	110.25	128.7	0
1779.446579	2.7	forage	4.424	248.4215817	470	40	15.14858408	1	n/a	n/a	n/a	n/a
1792.015031	2.7	forage	3.223	-4.67386114	330	20	254.9824456	1	n/a	n/a	n/a	n/a
1801.528266	2.7	forage	3.308	10.30425364	331.6666667	5	242.3809416	0	n/a	n/a	n/a	n/a
1808.894384	1.8	engage	2.542	n/a	n/a	n/a	n/a	n/a	0	122.55	211.5	0
1820.645261	2.7	forage	3.291	-64.20032527	320	40	277.9006338	0	n/a	n/a	n/a	n/a
1828.126226	1.8	engage	1.446	n/a	n/a	n/a	n/a	n/a	0	115.15	230.55	0
1840.228815	2.7	forage	3.364	-54.04442768	260	20	231.6207937	0	n/a	n/a	n/a	n/a
1846.841467	1.8	engage	1.172	n/a	n/a	n/a	n/a	n/a	0	198	133.2	1
1858.857227	2.7	forage	2.987	-158.6711316	165	5	268.279161	1	n/a	n/a	n/a	n/a
1870.791328	2.7	forage	4.704	16.6414399	246.6666667	20	159.2869825	1	n/a	n/a	n/a	n/a
1882.105452	2.7	forage	3.603	96.41734319	256.6666667	20	90.85830693	1	n/a	n/a	n/a	n/a
1893.907593	2.7	forage	3.491	-158.6579448	165	20	268.2675419	0	n/a	n/a	n/a	n/a
1902.93719	1.8	engage	2.077	n/a	n/a	n/a	n/a	n/a	0	349.8	169.6	1
1913.188649	2.7	forage	2.762	213.6337106	385	40	20.56254716	1	n/a	n/a	n/a	n/a
1922.102323	2.7	forage	4.032	46.72313767	301.6666667	5	183.3134148	1	n/a	n/a	n/a	n/a
1933.437365	2.7	forage	3.302	-94.8364586	231.6666667	5	274.633444	0	n/a	n/a	n/a	n/a
1940.167687	1.8	engage	1.39	n/a	n/a	n/a	n/a	n/a	0	278.25	389.25	0
1951.220475	2.7	forage	3.723	197.9682964	415	40	49.5	1	n/a	n/a	n/a	n/a
1964.952193	2.7	forage	2.102	-61.14602384	275	40	270.9133846	0	n/a	n/a	n/a	n/a
1970.198687	1.8	engage	3.478	n/a	n/a	n/a	n/a	n/a	0	413.4	231	1
1983.947542	2.7	forage	2.102	230.9297872	416.6666667	5	15.14858408	1	n/a	n/a	n/a	n/a
1993.246993	2.7	forage	4.422	-50.17839143	280	5	267.6522811	0	n/a	n/a	n/a	n/a
2002.862904	1.8	engage	3.206	n/a	n/a	n/a	n/a	n/a	0	156.35	170	1