onset	duration	stage	RT	SearchEvidence	SearchValue	SearchCosts	OfferValue	Choice_isForage	ExcludeBlock	ExpValueLeft	ExpValueRight	Choice_isLeft
6.018838422	2.7	forage	8.803	27.13556494	286.6666667	40	159.5	0	n/a	n/a	n/a	n/a
19.16396404	1.8	engage	1.607	n/a	n/a	n/a	n/a	n/a	0	13.95	133.4	0
30.83106477	2.7	forage	7.454	29.8315913	251.6666667	40	139.471933	0	n/a	n/a	n/a	n/a
42.4621974	1.8	engage	4.309	n/a	n/a	n/a	n/a	n/a	0	40.3	78.3	0
57.02766732	2.7	forage	3.271	-31.86733732	318.3333333	20	262.0355364	0	n/a	n/a	n/a	n/a
65.84370775	1.8	engage	1.657	n/a	n/a	n/a	n/a	n/a	0	163.3	269.5	0
76.29291097	2.7	forage	4.31	-126.0484583	143.3333333	20	239.1306272	0	n/a	n/a	n/a	n/a
83.69232318	1.8	engage	4.478	n/a	n/a	n/a	n/a	n/a	0	286.2	390.1	0
97.34164432	2.7	forage	2.951	200.2937277	440	20	43.89210804	1	n/a	n/a	n/a	n/a
106.973951	2.7	forage	2.678	-33.26982211	301.6666667	40	256.5513053	0	n/a	n/a	n/a	n/a
113.9733464	1.8	engage	2.758	n/a	n/a	n/a	n/a	n/a	0	192	252	1
125.5224367	2.7	forage	3.409	-160.0844424	183.3333333	20	269.5	0	n/a	n/a	n/a	n/a
134.0551559	1.8	engage	3.974	n/a	n/a	n/a	n/a	n/a	0	42.75	289.1	0
146.1708633	2.7	forage	10.864	113.697983	286.6666667	40	99	1	n/a	n/a	n/a	n/a
163.419525	2.7	forage	4.873	-25.96053854	246.6666667	40	220	0	n/a	n/a	n/a	n/a
171.6522648	1.8	engage	3.463	n/a	n/a	n/a	n/a	n/a	0	238	10.5	1
184.5534498	2.7	forage	1.964	174.9329762	378.3333333	5	60.86821588	1	n/a	n/a	n/a	n/a
194.03387	2.7	forage	5.323	45.64560133	321.6666667	5	186.3626075	1	n/a	n/a	n/a	n/a
207.1828352	2.7	forage	2.389	-84.49139044	250	20	267.0085257	0	n/a	n/a	n/a	n/a
214.9489692	1.8	engage	1.751	n/a	n/a	n/a	n/a	n/a	0	430.95	108	1
227.0146746	2.7	forage	5.75	18.78201633	306.6666667	20	188.9016649	0	n/a	n/a	n/a	n/a
236.1806725	1.8	engage	5.352	n/a	n/a	n/a	n/a	n/a	0	201.6	205.2	1
251.6961501	2.7	forage	4.458	95.72674245	333.3333333	20	132.7519239	1	n/a	n/a	n/a	n/a
264.714746	2.7	forage	3.818	9.750205389	300	5	205.8799859	1	n/a	n/a	n/a	n/a
281.3140742	2.7	forage	2.97	-74.60738058	270	40	267.313113	0	n/a	n/a	n/a	n/a
289.6265944	1.8	engage	1.464	n/a	n/a	n/a	n/a	n/a	0	379.6	133.9	1
303.0254605	2.7	forage	3.795	-70.49678923	278.3333333	20	262.9443187	0	n/a	n/a	n/a	n/a
312.2248258	1.8	engage	3.747	n/a	n/a	n/a	n/a	n/a	0	361.4	176	1
325.9572061	2.7	forage	6.831	67.42024546	371.6666667	20	162.9376037	1	n/a	n/a	n/a	n/a
340.1059718	2.7	forage	4.025	74.30924836	343.3333333	20	158.9223631	1	n/a	n/a	n/a	n/a
352.8065725	2.7	forage	3.286	-54.23765572	301.6666667	20	258.5340275	0	n/a	n/a	n/a	n/a
362.5209412	1.8	engage	1.203	n/a	n/a	n/a	n/a	n/a	0	413.1	186	1
371.9201622	2.7	forage	3.773	244.2672065	451.6666667	5	15.14858408	1	n/a	n/a	n/a	n/a
381.8194529	2.7	forage	3.873	-53.20571065	291.6666667	20	277.8342387	0	n/a	n/a	n/a	n/a
388.935672	1.8	engage	1.715	n/a	n/a	n/a	n/a	n/a	0	153	420	0
399.6196857	2.7	forage	5.803	203.6786027	416.6666667	20	48.45261808	1	n/a	n/a	n/a	n/a
414.9703843	2.7	forage	4.739	-20.44462217	290	20	245.259167	0	n/a	n/a	n/a	n/a
425.249437	1.8	engage	1.442	n/a	n/a	n/a	n/a	n/a	0	98.7	270.6	0
436.0846071	2.7	forage	5.906	6.054048254	221.6666667	40	159.5	1	n/a	n/a	n/a	n/a
450.6673326	2.7	forage	4.21	-135.5343376	150	5	251.5003018	0	n/a	n/a	n/a	n/a
459.3968728	1.8	engage	3.79	n/a	n/a	n/a	n/a	n/a	0	112.7	91.25	1
473.0658091	2.7	forage	5.517	-12.20543903	301.6666667	5	231	0	n/a	n/a	n/a	n/a
484.1282484	1.8	engage	1.548	n/a	n/a	n/a	n/a	n/a	0	31.6	315	0
497.5976154	2.7	forage	8.591	93.39072481	285	5	115.3893416	1	n/a	n/a	n/a	n/a
517.3964978	2.7	forage	4.113	58.04168637	270	5	146.760173	1	n/a	n/a	n/a	n/a
528.4748286	2.7	forage	7.785	46.94122697	263.3333333	40	155.5525376	0	n/a	n/a	n/a	n/a
539.4740213	1.8	engage	7.69	n/a	n/a	n/a	n/a	n/a	0	201.55	56	1
555.3233635	2.7	forage	5.08	-45.39162182	198.3333333	5	207.323525	0	n/a	n/a	n/a	n/a
563.8721432	1.8	engage	8.227	n/a	n/a	n/a	n/a	n/a	0	234	181.9	1
580.9726062	2.7	forage	4.889	160.3393441	400	40	95.93503848	1	n/a	n/a	n/a	n/a
595.5543583	2.7	forage	4.324	-50.38545177	300	5	264.6871888	0	n/a	n/a	n/a	n/a
605.1356379	1.8	engage	2.909	n/a	n/a	n/a	n/a	n/a	0	283.4	116	1
619.3036204	2.7	forage	7.815	128.3986587	346.6666667	20	107.5049293	1	n/a	n/a	n/a	n/a
634.7853991	2.7	forage	3.172	-77.736358	250	5	259.426211	0	n/a	n/a	n/a	n/a
641.3662048	1.8	engage	4.365	n/a	n/a	n/a	n/a	n/a	0	132.6	171.6	0
652.4986568	2.7	forage	2.304	163.1180323	266.6666667	5	35.56450883	1	n/a	n/a	n/a	n/a
662.2311996	2.7	forage	3.293	88.33559009	228.3333333	5	101.0549268	1	n/a	n/a	n/a	n/a
671.4138848	2.7	forage	13.367	-43.52949885	208.3333333	5	214.5	1	n/a	n/a	n/a	n/a
692.9122649	2.7	forage	2.691	-130.5309726	166.6666667	40	269.8056939	0	n/a	n/a	n/a	n/a
701.178273	1.8	engage	2.361	n/a	n/a	n/a	n/a	n/a	0	122	459	0
712.413303	2.7	forage	3.929	170.1097446	321.6666667	20	41.78074544	1	n/a	n/a	n/a	n/a
722.9599085	2.7	forage	5.051	-67.12880807	233.3333333	20	244.8696494	0	n/a	n/a	n/a	n/a
732.275905	1.8	engage	4.249	n/a	n/a	n/a	n/a	n/a	0	227.95	151.2	1
744.0582832	2.7	forage	2.841	-60.66633804	231.6666667	40	233.2848197	0	n/a	n/a	n/a	n/a
750.4411481	1.8	engage	3.554	n/a	n/a	n/a	n/a	n/a	0	138.6	157.5	1
763.2068536	2.7	forage	4.444	-52.43842362	235	20	197.297319	0	n/a	n/a	n/a	n/a
776.0892213	1.8	engage	2.5	n/a	n/a	n/a	n/a	n/a	0	175.5	119	1
788.87152	2.7	forage	2.292	201.0520514	453.3333333	20	73.30179568	1	n/a	n/a	n/a	n/a
797.2041943	2.7	forage	4.999	-44.19920359	316.6666667	5	280.826719	0	n/a	n/a	n/a	n/a
806.5535175	1.8	engage	5.723	n/a	n/a	n/a	n/a	n/a	0	382.2	112.5	1
819.5024426	2.7	forage	10.349	-3.515913016	263.3333333	40	192.5893567	0	n/a	n/a	n/a	n/a
833.2015161	1.8	engage	3.313	n/a	n/a	n/a	n/a	n/a	0	83.6	116.2	1
843.8006591	2.7	forage	4.476	246.4567124	471.6666667	40	15.14858408	1	n/a	n/a	n/a	n/a
857.8029456	2.7	forage	2.659	-33.17076438	316.6666667	20	272.4487702	0	n/a	n/a	n/a	n/a
863.8824517	1.8	engage	1.53	n/a	n/a	n/a	n/a	n/a	0	150.8	239.2	0
874.5982705	2.7	forage	4.541	-67.81061147	266.6666667	40	244.4023942	0	n/a	n/a	n/a	n/a
885.480802	1.8	engage	2.011	n/a	n/a	n/a	n/a	n/a	0	420	294.15	1
899.681439	2.7	forage	2.445	149.2669919	385	5	76.29178613	1	n/a	n/a	n/a	n/a
908.5456063	2.7	forage	3.291	-2.510950153	296.6666667	5	217.0918968	0	n/a	n/a	n/a	n/a
918.3949166	1.8	engage	1.936	n/a	n/a	n/a	n/a	n/a	0	363.35	105	1
929.8773695	2.7	forage	8.119	97.71110608	250	20	82.13897691	1	n/a	n/a	n/a	n/a
947.9592679	2.7	forage	4.845	70.27526952	253.3333333	40	107.1300739	1	n/a	n/a	n/a	n/a
960.2250163	2.7	forage	2.634	0.442467683	228.3333333	40	165.7970173	0	n/a	n/a	n/a	n/a
967.1911933	1.8	engage	1.812	n/a	n/a	n/a	n/a	n/a	0	261.95	52.25	1
979.4765657	2.7	forage	4.8	240.1669433	470	20	25.32334893	1	n/a	n/a	n/a	n/a
993.6557485	2.7	forage	4.204	-57.19046493	308.3333333	20	288.830919	0	n/a	n/a	n/a	n/a
1003.221752	1.8	engage	2.757	n/a	n/a	n/a	n/a	n/a	0	357.75	286	1
1018.137172	2.7	forage	3.691	179.7589927	355	5	63.0313113	1	n/a	n/a	n/a	n/a
1028.83643	2.7	forage	2.807	-56.70788357	270	20	267.0325939	0	n/a	n/a	n/a	n/a
1035.169337	1.8	engage	1.65	n/a	n/a	n/a	n/a	n/a	0	104.4	352.5	0
1049.805218	2.7	forage	3.857	-61.88610734	256.6666667	20	248.9546049	0	n/a	n/a	n/a	n/a
1058.084209	1.8	engage	3.296	n/a	n/a	n/a	n/a	n/a	0	385.4	376.25	1
1072.169664	2.7	forage	9.117	28.34495079	265	20	153.651426	0	n/a	n/a	n/a	n/a
1087.531925	1.8	engage	3.736	n/a	n/a	n/a	n/a	n/a	0	40.6	71.4	0
1101.235304	2.7	forage	5.451	135.5887263	288.3333333	40	49.5	0	n/a	n/a	n/a	n/a
1109.946857	1.8	engage	1.721	n/a	n/a	n/a	n/a	n/a	0	40.5	13.3	1
1119.512717	2.7	forage	3.116	-152.1388914	140	5	247.0191892	0	n/a	n/a	n/a	n/a
1127.128874	1.8	engage	4.322	n/a	n/a	n/a	n/a	n/a	0	314.9	119.7	1
1139.361294	2.7	forage	6.795	54.16847576	225	40	115.5	0	n/a	n/a	n/a	n/a
1151.493724	1.8	engage	1.806	n/a	n/a	n/a	n/a	n/a	0	155.4	9	1
1164.260963	2.7	forage	9.088	249.9778448	466.6666667	5	15.14305115	1	n/a	n/a	n/a	n/a
1181.993472	2.7	forage	2.436	-11.36959911	331.6666667	20	262.511091	0	n/a	n/a	n/a	n/a
1188.740783	1.8	engage	1.84	n/a	n/a	n/a	n/a	n/a	0	447.2	224.4	1
1198.556663	2.7	forage	3.321	-51.2159432	303.3333333	40	267.5205976	0	n/a	n/a	n/a	n/a
1206.339432	1.8	engage	2.208	n/a	n/a	n/a	n/a	n/a	0	378.35	235	1
1217.955218	2.7	forage	4.713	226.0912664	476.6666667	40	38.15142598	1	n/a	n/a	n/a	n/a
1229.087646	2.7	forage	2.612	-33.008908	326.6666667	20	276.1840451	0	n/a	n/a	n/a	n/a
1237.120425	1.8	engage	2.308	n/a	n/a	n/a	n/a	n/a	0	222.6	351.9	1
1253.688803	2.7	forage	3.996	-37.82673574	168.3333333	5	181.7166139	0	n/a	n/a	n/a	n/a
1261.268591	1.8	engage	3.647	n/a	n/a	n/a	n/a	n/a	0	266.4	121.2	1
1273.970474	2.7	forage	2.547	191.8897004	396.6666667	5	43.89210804	1	n/a	n/a	n/a	n/a
1284.387102	2.7	forage	3.642	-93.46888654	246.6666667	5	277.8956541	0	n/a	n/a	n/a	n/a
1292.116206	1.8	engage	1.967	n/a	n/a	n/a	n/a	n/a	0	204.05	197.4	1
1303.434685	2.7	forage	4.004	11.23874554	323.3333333	40	198	0	n/a	n/a	n/a	n/a
1311.864712	1.8	engage	2.434	n/a	n/a	n/a	n/a	n/a	0	38.85	120.6	0
1323.363733	2.7	forage	5.169	101.0162148	341.6666667	40	126.5	0	n/a	n/a	n/a	n/a
1332.92977	1.8	engage	3.69	n/a	n/a	n/a	n/a	n/a	0	171.35	24.4	1
1343.445599	2.7	forage	5.08	-116.9450698	130	40	200.5802777	0	n/a	n/a	n/a	n/a
1356.994599	1.8	engage	3.81	n/a	n/a	n/a	n/a	n/a	0	247.65	225.6	1
1367.993652	2.7	forage	3.371	-9.818112771	221.6666667	40	176.5164982	0	n/a	n/a	n/a	n/a
1374.859852	1.8	engage	2.472	n/a	n/a	n/a	n/a	n/a	0	217.8	195.3	1
1387.258877	2.7	forage	2.649	219.8412236	433.3333333	20	26.39784216	1	n/a	n/a	n/a	n/a
1397.474939	2.7	forage	3.301	-9.858152675	308.3333333	40	242.647905	0	n/a	n/a	n/a	n/a
1405.190853	1.8	engage	4.462	n/a	n/a	n/a	n/a	n/a	0	427.2	297.5	1
1420.6934	2.7	forage	4.543	168.481738	283.3333333	40	40.60444646	1	n/a	n/a	n/a	n/a
1433.143254	2.7	forage	8.677	-118.7493	210	20	280.5	0	n/a	n/a	n/a	n/a
1447.154276	1.8	engage	6.992	n/a	n/a	n/a	n/a	n/a	0	418.2	48.3	1
1462.373179	2.7	forage	10.239	110.8955955	243.3333333	40	65.85061114	1	n/a	n/a	n/a	n/a
1481.518289	2.7	forage	2.429	-112.7026105	138.3333333	20	218.1508978	0	n/a	n/a	n/a	n/a
1487.151273	1.8	engage	4.413	n/a	n/a	n/a	n/a	n/a	0	281.4	165.6	1
1500.433466	2.7	forage	5.034	134.5167597	245	40	65.74714552	1	n/a	n/a	n/a	n/a
1515.353053	2.7	forage	2.413	-139.7412387	186.6666667	5	286	0	n/a	n/a	n/a	n/a
1521.965217	1.8	engage	4.255	n/a	n/a	n/a	n/a	n/a	0	413.4	17.8	1
1535.230868	2.7	forage	7.166	174.8942458	301.6666667	40	30.84382073	1	n/a	n/a	n/a	n/a
1548.796418	2.7	forage	4.678	-115.8565599	170	40	250.6438056	0	n/a	n/a	n/a	n/a
1558.829102	1.8	engage	1.721	n/a	n/a	n/a	n/a	n/a	0	350.35	173.55	1
1569.711518	2.7	forage	2.365	222.4465654	441.6666667	40	32.28846637	1	n/a	n/a	n/a	n/a
1578.194213	2.7	forage	2.44	-73.44045068	281.6666667	40	286.3217393	0	n/a	n/a	n/a	n/a
1587.793503	1.8	engage	1.579	n/a	n/a	n/a	n/a	n/a	0	333.9	147.9	1
1597.342754	2.7	forage	4.038	-36.3697148	248.3333333	40	222.9296816	0	n/a	n/a	n/a	n/a
1605.058824	1.8	engage	2.377	n/a	n/a	n/a	n/a	n/a	0	32.8	361.2	0
1617.712716	2.7	forage	2.15	219.988178	423.3333333	40	20.30581963	1	n/a	n/a	n/a	n/a
1628.373667	2.7	forage	2.862	-51.56518116	280	20	262.4936623	0	n/a	n/a	n/a	n/a
1636.523155	1.8	engage	3.561	n/a	n/a	n/a	n/a	n/a	0	390.15	84	1
1648.155468	2.7	forage	2.051	173.4831665	285	5	25.60110155	1	n/a	n/a	n/a	n/a
1658.488084	2.7	forage	7.109	-34.52463323	191.6666667	5	196.931593	0	n/a	n/a	n/a	n/a
1672.003679	1.8	engage	2.448	n/a	n/a	n/a	n/a	n/a	0	187.2	234	0
1683.35275	2.7	forage	4.563	-60.15035629	245	20	252.4693929	0	n/a	n/a	n/a	n/a
1693.285461	1.8	engage	1.47	n/a	n/a	n/a	n/a	n/a	0	415.2	109.65	1
1703.684535	2.7	forage	4.051	-79.12692856	308.3333333	40	280.8294854	0	n/a	n/a	n/a	n/a
1712.850627	1.8	engage	2.938	n/a	n/a	n/a	n/a	n/a	0	432.5	260	1
1725.703421	2.7	forage	3.383	198.8003554	406.6666667	5	49.5	1	n/a	n/a	n/a	n/a
1737.198658	2.7	forage	4.447	-39.40465101	276.6666667	40	254.9885318	0	n/a	n/a	n/a	n/a
1746.181644	1.8	engage	4.271	n/a	n/a	n/a	n/a	n/a	0	185.25	160	1
1758.647028	2.7	forage	4.02	-29.68220244	291.6666667	5	200.8657764	0	n/a	n/a	n/a	n/a
1768.146379	1.8	engage	2.698	n/a	n/a	n/a	n/a	n/a	0	209.05	81	1
1782.311851	2.7	forage	2.325	-101.4675905	223.3333333	40	270.8417333	0	n/a	n/a	n/a	n/a
1789.827992	1.8	engage	4.047	n/a	n/a	n/a	n/a	n/a	0	260.85	234.6	0
1800.677119	2.7	forage	4.001	139.4274852	330	5	93.5	1	n/a	n/a	n/a	n/a
1811.46423	2.7	forage	2.661	-105.3763962	205	40	269.9913234	0	n/a	n/a	n/a	n/a
1817.26141	1.8	engage	2.458	n/a	n/a	n/a	n/a	n/a	0	219.35	304.75	0
1829.708241	2.7	forage	6.928	91.87020438	251.6666667	20	87.49871737	1	n/a	n/a	n/a	n/a
1846.511291	2.7	forage	4.159	-5.816169542	238.3333333	5	169.8828027	0	n/a	n/a	n/a	n/a
1855.389584	1.8	engage	2.383	n/a	n/a	n/a	n/a	n/a	0	38.8	246.45	0
1865.822139	2.7	forage	3.751	-97.97058163	185	20	245.2624868	0	n/a	n/a	n/a	n/a
1874.988113	1.8	engage	1.896	n/a	n/a	n/a	n/a	n/a	0	258.3	138.65	0
1884.753973	2.7	forage	5.257	74.45607364	320	40	146.6035914	0	n/a	n/a	n/a	n/a
1894.586665	1.8	engage	1.746	n/a	n/a	n/a	n/a	n/a	0	145.6	60.6	1
1906.5357	2.7	forage	2.62	-52.14656204	250	40	228.5962225	0	n/a	n/a	n/a	n/a
1914.368444	1.8	engage	1.94	n/a	n/a	n/a	n/a	n/a	0	378	232.9	1
1926.584126	2.7	forage	3.788	200.0709907	411.6666667	5	40.60444646	1	n/a	n/a	n/a	n/a
1937.933249	2.7	forage	6.615	-31.94789665	308.3333333	20	256.1172476	0	n/a	n/a	n/a	n/a
1949.082446	1.8	engage	2.297	n/a	n/a	n/a	n/a	n/a	0	377.5	137.8	1