onset	duration	stage	RT	SearchEvidence	SearchValue	SearchCosts	OfferValue	Choice_isForage	ExcludeBlock	ExpValueLeft	ExpValueRight	Choice_isLeft
6.018133756	2.7	forage	6.335	-20.67931023	261.6666667	5	208.914793	0	n/a	n/a	n/a	n/a
15.5985919	1.8	engage	2.751	n/a	n/a	n/a	n/a	n/a	0	273	352	0
26.61434151	2.7	forage	3.288	-6.858498063	295	5	238.4154972	0	n/a	n/a	n/a	n/a
33.16398686	1.8	engage	2.618	n/a	n/a	n/a	n/a	n/a	0	312.55	204.75	1
46.06289834	2.7	forage	5.382	132.7190584	353.3333333	20	101.2167648	1	n/a	n/a	n/a	n/a
58.27860404	2.7	forage	2.359	-57.07628389	288.3333333	20	264.2232534	0	n/a	n/a	n/a	n/a
63.91163941	1.8	engage	4.701	n/a	n/a	n/a	n/a	n/a	0	137.6	416.5	0
79.79366617	2.7	forage	3.765	211.8794611	401.6666667	5	25.32334893	1	n/a	n/a	n/a	n/a
91.62611891	2.7	forage	1.981	-78.33347082	253.3333333	40	270.761506	0	n/a	n/a	n/a	n/a
97.85896467	1.8	engage	2.819	n/a	n/a	n/a	n/a	n/a	0	391.5	192.4	1
113.9077634	2.7	forage	3.188	-79.74560133	216.6666667	20	261.3118304	0	n/a	n/a	n/a	n/a
122.5904443	1.8	engage	2.193	n/a	n/a	n/a	n/a	n/a	0	258.3	280.5	0
132.3229869	2.7	forage	4.618	32.67433228	303.3333333	5	167.8879081	0	n/a	n/a	n/a	n/a
141.3056508	1.8	engage	1.453	n/a	n/a	n/a	n/a	n/a	0	82.15	127.5	0
151.0048663	2.7	forage	4.545	-76.11375518	308.3333333	40	291.5	0	n/a	n/a	n/a	n/a
161.6874469	1.8	engage	1.52	n/a	n/a	n/a	n/a	n/a	0	265	11.75	1
171.5365847	2.7	forage	4.484	140.7702513	291.6666667	20	51.40636789	1	n/a	n/a	n/a	n/a
186.5021068	2.7	forage	7.127	-19.50666298	215	20	186.8091142	0	n/a	n/a	n/a	n/a
197.1347137	1.8	engage	3.335	n/a	n/a	n/a	n/a	n/a	0	114.7	195.6	1
209.3837138	2.7	forage	4.607	-124.6813842	163.3333333	20	239.348071	0	n/a	n/a	n/a	n/a
218.2497459	1.8	engage	3.085	n/a	n/a	n/a	n/a	n/a	0	281.65	283.8	0
230.4820452	2.7	forage	5.365	-19.88028268	270	40	198	0	n/a	n/a	n/a	n/a
241.1812611	1.8	engage	2.793	n/a	n/a	n/a	n/a	n/a	0	84.6	27.5	1
252.7470422	2.7	forage	6.203	187.1660061	308.3333333	20	25.32334893	1	n/a	n/a	n/a	n/a
266.8671799	2.7	forage	5.061	-42.08284292	201.6666667	20	212.4293044	0	n/a	n/a	n/a	n/a
277.211833	1.8	engage	2.715	n/a	n/a	n/a	n/a	n/a	0	262.5	163.8	1
291.2773879	2.7	forage	3.49	174.8155676	351.6666667	5	36.35848297	1	n/a	n/a	n/a	n/a
303.2436794	2.7	forage	5.506	35.64883054	281.6666667	40	171.9059152	0	n/a	n/a	n/a	n/a
312.8758693	1.8	engage	2.771	n/a	n/a	n/a	n/a	n/a	0	248.2	85.05	1
325.8580405	2.7	forage	4.245	-44.74742384	273.3333333	20	222.092274	0	n/a	n/a	n/a	n/a
335.2407736	1.8	engage	6.438	n/a	n/a	n/a	n/a	n/a	0	154.8	242.95	0
350.6062204	2.7	forage	6.006	156.78376	405	5	82.5	1	n/a	n/a	n/a	n/a
362.321988	2.7	forage	2.101	-19.95796489	303.3333333	40	242.5527388	0	n/a	n/a	n/a	n/a
368.4548317	1.8	engage	5.942	n/a	n/a	n/a	n/a	n/a	0	175.2	258	1
381.4038165	2.7	forage	20.307	100.9668243	271.6666667	40	93.5	0	n/a	n/a	n/a	n/a
406.9518497	1.8	engage	2.766	n/a	n/a	n/a	n/a	n/a	0	38.25	8.7	1
420.0709716	2.7	forage	4.712	-91.18087621	238.3333333	5	269.843871	0	n/a	n/a	n/a	n/a
429.2001861	1.8	engage	7.454	n/a	n/a	n/a	n/a	n/a	0	340.8	122.5	1
445.6321827	2.7	forage	2.051	-128.6542427	231.6666667	5	286	0	n/a	n/a	n/a	n/a
454.0149702	1.8	engage	8.134	n/a	n/a	n/a	n/a	n/a	0	36.8	397.8	0
473.5136169	2.7	forage	5.134	194.3661251	373.3333333	40	36.65643076	1	n/a	n/a	n/a	n/a
487.3293242	2.7	forage	5.142	-75.15823818	256.6666667	5	272.0722549	0	n/a	n/a	n/a	n/a
498.9614941	1.8	engage	2.251	n/a	n/a	n/a	n/a	n/a	0	241.15	170.1	1
508.8106562	2.7	forage	4.709	5.028687356	265	40	198.0544993	0	n/a	n/a	n/a	n/a
517.9267274	1.8	engage	4.519	n/a	n/a	n/a	n/a	n/a	0	224.4	298.3	0
531.5256759	2.7	forage	18.457	12.2264088	368.3333333	20	231	1	n/a	n/a	n/a	n/a
556.3737357	2.7	forage	2.624	-84.66582499	278.3333333	40	283.3334088	0	n/a	n/a	n/a	n/a
564.4065053	1.8	engage	2.84	n/a	n/a	n/a	n/a	n/a	0	313.65	213.2	1
576.8054914	2.7	forage	13.849	237.7291937	466.6666667	20	20.30581963	1	n/a	n/a	n/a	n/a
597.1538749	2.7	forage	8.54	-18.2365441	323.3333333	5	259.9203008	0	n/a	n/a	n/a	n/a
610.086303	1.8	engage	2.704	n/a	n/a	n/a	n/a	n/a	0	395	122.55	1
621.2686889	2.7	forage	4.082	-141.6629512	168.3333333	40	255.8408782	0	n/a	n/a	n/a	n/a
631.901266	1.8	engage	1.721	n/a	n/a	n/a	n/a	n/a	0	336.05	133.4	1
641.4171569	2.7	forage	3.854	-61.43155945	231.6666667	20	227.4838288	0	n/a	n/a	n/a	n/a
649.7166025	1.8	engage	3.801	n/a	n/a	n/a	n/a	n/a	0	88.8	371.8	0
661.3989832	2.7	forage	7.439	154.1788978	453.3333333	5	99	1	n/a	n/a	n/a	n/a
675.0645832	2.7	forage	2.151	-37.3092601	325	5	267.5205976	0	n/a	n/a	n/a	n/a
684.6139466	1.8	engage	4.608	n/a	n/a	n/a	n/a	n/a	0	420	110.45	1
697.1305246	2.7	forage	4.573	-101.0335882	258.3333333	40	270.1871888	0	n/a	n/a	n/a	n/a
705.1456547	1.8	engage	6.589	n/a	n/a	n/a	n/a	n/a	0	254.4	139.2	1
720.7110297	2.7	forage	4.976	240.8309491	476.6666667	20	25.32334893	1	n/a	n/a	n/a	n/a
734.4600042	2.7	forage	5.714	-12.71389601	331.6666667	5	262.0355364	0	n/a	n/a	n/a	n/a
745.8925219	1.8	engage	6.618	n/a	n/a	n/a	n/a	n/a	0	138	399.35	0
761.3746054	2.7	forage	5.927	-67.35106551	295	5	262.9360193	0	n/a	n/a	n/a	n/a
771.6904941	1.8	engage	8.124	n/a	n/a	n/a	n/a	n/a	0	111.8	314.5	0
788.039296	2.7	forage	9.151	-87.30384789	266.6666667	40	262.9443187	0	n/a	n/a	n/a	n/a
802.4048954	1.8	engage	8.577	n/a	n/a	n/a	n/a	n/a	0	182	118.4	1
817.9369197	2.7	forage	17.421	-13.28092819	241.6666667	5	192.5	0	n/a	n/a	n/a	n/a
839.5020008	1.8	engage	8.647	n/a	n/a	n/a	n/a	n/a	0	16.35	98	0
858.3671734	2.7	forage	3.04	217.600778	401.6666667	5	25.32334893	1	n/a	n/a	n/a	n/a
868.7497136	2.7	forage	13.537	-37.9187851	295	20	260.9873246	0	n/a	n/a	n/a	n/a
887.3983105	1.8	engage	11.087	n/a	n/a	n/a	n/a	n/a	0	193.6	450	0
906.6134567	2.7	forage	10.912	-113.5598997	161.6666667	5	244.937981	0	n/a	n/a	n/a	n/a
920.7957613	1.8	engage	2.748	n/a	n/a	n/a	n/a	n/a	0	68.9	146.4	0
935.7449566	2.7	forage	4.791	81.23379106	335	5	132	1	n/a	n/a	n/a	n/a
948.0936328	2.7	forage	6.85	-54.14953473	290	20	247.5	0	n/a	n/a	n/a	n/a
958.3095499	1.8	engage	2.009	n/a	n/a	n/a	n/a	n/a	0	128.25	22	1
969.513345	2.7	forage	5.927	222.9386818	470	40	43.89210804	1	n/a	n/a	n/a	n/a
982.6909215	2.7	forage	4.299	-13.69997317	341.6666667	40	267.6522811	0	n/a	n/a	n/a	n/a
991.290376	1.8	engage	2.045	n/a	n/a	n/a	n/a	n/a	0	206.7	79.9	1
1001.90621	2.7	forage	5.371	-55.68973392	293.3333333	40	264	0	n/a	n/a	n/a	n/a
1012.572072	1.8	engage	3.178	n/a	n/a	n/a	n/a	n/a	0	403.2	45.45	1
1027.820871	2.7	forage	3.901	241.4465235	468.3333333	40	20.30581963	1	n/a	n/a	n/a	n/a
1038.786693	2.7	forage	5.595	-29.41265698	321.6666667	5	270.922514	0	n/a	n/a	n/a	n/a
1048.869252	1.8	engage	2.968	n/a	n/a	n/a	n/a	n/a	0	165.9	416.05	0
1062.034915	2.7	forage	2.468	223.1409101	443.3333333	5	26.39784216	1	n/a	n/a	n/a	n/a
1072.900659	2.7	forage	4.914	-37.24065188	308.3333333	40	267.5579448	0	n/a	n/a	n/a	n/a
1082.000077	1.8	engage	3.838	n/a	n/a	n/a	n/a	n/a	0	154	392.2	0
1095.049018	2.7	forage	6.598	163.3521671	435	20	82.07092199	1	n/a	n/a	n/a	n/a
1107.914654	2.7	forage	2.852	-5.688488171	323.3333333	40	238.0198934	0	n/a	n/a	n/a	n/a
1116.164044	1.8	engage	4.355	n/a	n/a	n/a	n/a	n/a	0	110.7	261	0
1127.513136	2.7	forage	4.189	146.3436179	423.3333333	5	93.5	1	n/a	n/a	n/a	n/a
1140.645439	2.7	forage	2.201	-22.55530238	311.6666667	5	245.3208591	0	n/a	n/a	n/a	n/a
1147.161677	1.8	engage	7.285	n/a	n/a	n/a	n/a	n/a	0	374.4	89.3	1
1164.212377	2.7	forage	5.075	-119.9440236	205	5	269.8427644	0	n/a	n/a	n/a	n/a
1174.426295	1.8	engage	3.467	n/a	n/a	n/a	n/a	n/a	0	147.5	115.2	1
1187.675226	2.7	forage	4.586	190.5355733	376.6666667	20	30.95973543	1	n/a	n/a	n/a	n/a
1201.55748	2.7	forage	5.705	0.866086548	271.6666667	20	205.2500629	0	n/a	n/a	n/a	n/a
1214.83981	1.8	engage	2.735	n/a	n/a	n/a	n/a	n/a	0	152.1	213.5	0
1226.35835	2.7	forage	3.617	216.2473517	451.6666667	40	35.55703938	1	n/a	n/a	n/a	n/a
1237.704699	2.7	forage	2.469	-11.50849387	321.6666667	20	249.0965243	0	n/a	n/a	n/a	n/a
1245.420877	1.8	engage	1.891	n/a	n/a	n/a	n/a	n/a	0	180.4	108	1
1255.386691	2.7	forage	9.092	201.668179	446.6666667	20	55.56574116	1	n/a	n/a	n/a	n/a
1270.518849	2.7	forage	2.553	-42.07839814	313.3333333	20	269.8427644	0	n/a	n/a	n/a	n/a
1278.301618	1.8	engage	2.69	n/a	n/a	n/a	n/a	n/a	0	420	100.8	1
1287.850881	2.7	forage	13.059	108.6302701	318.3333333	20	104.5	1	n/a	n/a	n/a	n/a
1307.049395	2.7	forage	4.349	-162.9879902	181.6666667	40	283.3325788	0	n/a	n/a	n/a	n/a
1317.648561	1.8	engage	1.702	n/a	n/a	n/a	n/a	n/a	0	364	130.05	1
1328.348148	2.7	forage	6.732	104.5272589	293.3333333	5	95.99479402	1	n/a	n/a	n/a	n/a
1343.22998	2.7	forage	4.745	-66.98860386	240	5	237.4760072	0	n/a	n/a	n/a	n/a
1354.379114	1.8	engage	2.252	n/a	n/a	n/a	n/a	n/a	0	101.25	89.1	1
1365.528192	2.7	forage	2.902	-53.405154	216.6666667	5	222.1661385	0	n/a	n/a	n/a	n/a
1374.694274	1.8	engage	5.545	n/a	n/a	n/a	n/a	n/a	0	126	184.8	0
1388.876415	2.7	forage	3.115	-86.3422078	265	5	253	0	n/a	n/a	n/a	n/a
1398.175825	1.8	engage	1.478	n/a	n/a	n/a	n/a	n/a	0	312.8	24.75	1
1407.775017	2.7	forage	6.088	-97.88913703	191.6666667	5	247.8715356	0	n/a	n/a	n/a	n/a
1417.307641	1.8	engage	5.38	n/a	n/a	n/a	n/a	n/a	0	112.7	107.8	1
1430.82432	2.7	forage	2.48	204.4695891	443.3333333	5	43.89210804	1	n/a	n/a	n/a	n/a
1439.305939	2.7	forage	4.389	-14.03257549	313.3333333	20	247.6424727	0	n/a	n/a	n/a	n/a
1446.872039	1.8	engage	2.927	n/a	n/a	n/a	n/a	n/a	0	204	92	1
1460.355025	2.7	forage	3.869	-19.01061818	341.6666667	20	231	0	n/a	n/a	n/a	n/a
1470.370207	1.8	engage	4.971	n/a	n/a	n/a	n/a	n/a	0	54	279.3	0
1487.403382	2.7	forage	11.013	3.533563033	191.6666667	5	118.894447	0	n/a	n/a	n/a	n/a
1502.801048	1.8	engage	4.452	n/a	n/a	n/a	n/a	n/a	0	93.5	89.7	0
1517.233256	2.7	forage	6.812	27.93265597	243.3333333	20	161.4423319	0	n/a	n/a	n/a	n/a
1529.532354	1.8	engage	2.009	n/a	n/a	n/a	n/a	n/a	0	145.5	76.5	1
1541.581392	2.7	forage	5.96	179.2464598	380	40	51.20220311	1	n/a	n/a	n/a	n/a
1553.497119	2.7	forage	6.509	-22.80780645	273.3333333	20	225.9108194	0	n/a	n/a	n/a	n/a
1565.462871	1.8	engage	1.944	n/a	n/a	n/a	n/a	n/a	0	346	100.8	1
1575.245465	2.7	forage	7.762	10.06548966	278.3333333	40	161.5513304	0	n/a	n/a	n/a	n/a
1589.41104	1.8	engage	6.636	n/a	n/a	n/a	n/a	n/a	0	68.25	152	0
1604.209859	2.7	forage	3.525	-63.05523196	238.3333333	20	255.8417082	0	n/a	n/a	n/a	n/a
1612.959321	1.8	engage	3.446	n/a	n/a	n/a	n/a	n/a	0	368	169.2	1
1625.591592	2.7	forage	6.759	7.896805996	231.6666667	40	171.6475278	0	n/a	n/a	n/a	n/a
1636.624074	1.8	engage	7.447	n/a	n/a	n/a	n/a	n/a	0	93.15	183.6	0
1653.57279	2.7	forage	4.594	-51.63271968	291.6666667	5	272.3358986	0	n/a	n/a	n/a	n/a
1663.572342	1.8	engage	1.705	n/a	n/a	n/a	n/a	n/a	0	125	416.5	0
1675.454921	2.7	forage	6.209	-58.30686082	178.3333333	20	187.4899401	0	n/a	n/a	n/a	n/a
1687.203627	1.8	engage	5.203	n/a	n/a	n/a	n/a	n/a	0	288.75	150.5	1
1700.652478	2.7	forage	7.641	64.76942307	276.6666667	5	140.4133595	1	n/a	n/a	n/a	n/a
1719.734413	2.7	forage	3.457	-70.12731922	270	5	253	0	n/a	n/a	n/a	n/a
1730.350282	1.8	engage	2.383	n/a	n/a	n/a	n/a	n/a	0	27	400.2	0
1741.382692	2.7	forage	3.792	-193.7216874	116.6666667	40	272.0722549	0	n/a	n/a	n/a	n/a
1750.448827	1.8	engage	5.029	n/a	n/a	n/a	n/a	n/a	0	108.65	179.55	1
1763.680954	2.7	forage	3.581	-50.49111212	290	40	267.8965595	0	n/a	n/a	n/a	n/a
1774.596825	1.8	engage	1.873	n/a	n/a	n/a	n/a	n/a	0	99	214.65	0
1786.229432	2.7	forage	7.122	-58.27849538	285	20	265.4548815	0	n/a	n/a	n/a	n/a
1798.594978	1.8	engage	3.412	n/a	n/a	n/a	n/a	n/a	0	123.5	362.5	0
1811.127307	2.7	forage	6.262	234.2106987	466.6666667	40	25.32334893	1	n/a	n/a	n/a	n/a
1825.892922	2.7	forage	2.411	-34.22189025	316.6666667	40	270.8417333	0	n/a	n/a	n/a	n/a
1833.825706	1.8	engage	4.061	n/a	n/a	n/a	n/a	n/a	0	197.4	132.6	1
1846.991229	2.7	forage	5.383	113.6731955	290	20	93.5	1	n/a	n/a	n/a	n/a
1860.073579	2.7	forage	5.276	-78.87195312	211.6666667	20	246.2799909	0	n/a	n/a	n/a	n/a
1870.489507	1.8	engage	4.476	n/a	n/a	n/a	n/a	n/a	0	148.05	93	1
1888.63951	2.7	forage	7.081	102.7081267	338.3333333	5	118.9085559	1	n/a	n/a	n/a	n/a
1902.703649	2.7	forage	5.774	9.330459568	280	40	196.9512348	0	n/a	n/a	n/a	n/a
1913.869531	1.8	engage	4.313	n/a	n/a	n/a	n/a	n/a	0	185.25	192.5	1
1928.069262	2.7	forage	7.771	9.357976628	350	40	201.943866	0	n/a	n/a	n/a	n/a
1941.367421	1.8	engage	4.536	n/a	n/a	n/a	n/a	n/a	0	258	161.2	1
1957.016186	2.7	forage	4.783	-72.32908975	268.3333333	5	258.0274886	0	n/a	n/a	n/a	n/a
1966.365479	1.8	engage	2.722	n/a	n/a	n/a	n/a	n/a	0	116	313.6	0
1977.599566	2.7	forage	2.377	157.6800563	301.6666667	20	43.89210804	1	n/a	n/a	n/a	n/a
1989.615178	2.7	forage	5.849	-104.2634861	215	40	268.185378	0	n/a	n/a	n/a	n/a
1998.596344	1.8	engage	7.163	n/a	n/a	n/a	n/a	n/a	0	318.5	94.9	1