onset	duration	stage	RT	SearchEvidence	SearchValue	SearchCosts	OfferValue	Choice_isForage	ExcludeBlock	ExpValueLeft	ExpValueRight	Choice_isLeft
6.011892571	2.7	forage	3.255	243.9945258	455	40	15.14305115	1	n/a	n/a	n/a	n/a
18.57753248	2.7	forage	3.648	-29.06874906	308.3333333	20	265.6051003	0	n/a	n/a	n/a	n/a
26.44369857	1.8	engage	4.496	n/a	n/a	n/a	n/a	n/a	0	346.45	143	1
39.85925476	2.7	forage	7.823	6.634304109	195	40	148.5	0	n/a	n/a	n/a	n/a
53.00828963	1.8	engage	3.137	n/a	n/a	n/a	n/a	n/a	0	85.05	21.2	0
66.72875929	2.7	forage	3.587	221.9883104	436.6666667	5	26.39784216	1	n/a	n/a	n/a	n/a
78.85861268	2.7	forage	5.785	-18.54662743	311.6666667	20	252.5070167	0	n/a	n/a	n/a	n/a
87.72236893	1.8	engage	3.583	n/a	n/a	n/a	n/a	n/a	0	407.5	163.2	1
98.99274579	2.7	forage	15.845	56.65087605	238.3333333	20	140.9085559	1	n/a	n/a	n/a	n/a
123.0528986	2.7	forage	3.894	-76.53912613	175	40	227.820507	0	n/a	n/a	n/a	n/a
132.1688973	1.8	engage	4.386	n/a	n/a	n/a	n/a	n/a	0	393.75	168.75	1
147.6176832	2.7	forage	7.217	131.0351324	323.3333333	5	91.05057593	1	n/a	n/a	n/a	n/a
164.4330491	2.7	forage	8.61	70.57022953	321.6666667	5	148.5	0	n/a	n/a	n/a	n/a
177.2654753	1.8	engage	2.561	n/a	n/a	n/a	n/a	n/a	0	203.85	6.6	1
187.4484531	2.7	forage	4.132	116.5825713	375	5	121	1	n/a	n/a	n/a	n/a
197.2472493	2.7	forage	5.348	-48.97975789	276.6666667	5	252.4610935	0	n/a	n/a	n/a	n/a
206.9798184	1.8	engage	5.326	n/a	n/a	n/a	n/a	n/a	0	85	110	0
222.5618903	2.7	forage	4.264	-53.87371863	200	5	223.3640159	0	n/a	n/a	n/a	n/a
232.9444708	1.8	engage	3.642	n/a	n/a	n/a	n/a	n/a	0	297	132	1
246.4267147	2.7	forage	5.663	68.17432725	293.3333333	40	137.4419043	1	n/a	n/a	n/a	n/a
259.9130084	2.7	forage	4.324	22.60825244	305	40	176	0	n/a	n/a	n/a	n/a
269.4084077	1.8	engage	1.722	n/a	n/a	n/a	n/a	n/a	0	180.8	9.45	1
280.0408341	2.7	forage	3.152	175.5216421	338.3333333	40	70.4617474	1	n/a	n/a	n/a	n/a
290.9067436	2.7	forage	3.897	-76.63643177	271.6666667	20	286	0	n/a	n/a	n/a	n/a
298.9061015	1.8	engage	1.969	n/a	n/a	n/a	n/a	n/a	0	377	26	1
307.8887709	2.7	forage	8.41	71.22381503	325	5	154	1	n/a	n/a	n/a	n/a
323.1875846	2.7	forage	17.848	65.55880489	285	40	154.590086	1	n/a	n/a	n/a	n/a
349.5855856	2.7	forage	3.145	-51.05956441	236.6666667	5	236.1270811	0	n/a	n/a	n/a	n/a
357.0849756	1.8	engage	4.247	n/a	n/a	n/a	n/a	n/a	0	84	137.25	0
368.4340696	2.7	forage	9.952	36.21010848	343.3333333	5	181.5	1	n/a	n/a	n/a	n/a
385.5869382	2.7	forage	2.578	40.44937713	301.6666667	5	177.0244203	0	n/a	n/a	n/a	n/a
392.8489953	1.8	engage	4.102	n/a	n/a	n/a	n/a	n/a	0	67.5	108.5	0
405.9145335	2.7	forage	2.313	197.69272	408.3333333	5	42.53654243	1	n/a	n/a	n/a	n/a
417.1136973	2.7	forage	14.24	66.10287544	323.3333333	5	174.9974347	1	n/a	n/a	n/a	n/a
439.9786109	2.7	forage	2.927	-61.16214308	268.3333333	40	263.3725668	0	n/a	n/a	n/a	n/a
448.2613376	1.8	engage	2.654	n/a	n/a	n/a	n/a	n/a	0	200	308.25	0
458.1272468	2.7	forage	4.131	-91.46226213	201.6666667	40	236.5	0	n/a	n/a	n/a	n/a
466.3432657	1.8	engage	1.428	n/a	n/a	n/a	n/a	n/a	0	371.95	16.35	1
476.2425125	2.7	forage	13.303	143.6729507	290	5	50.53410291	1	n/a	n/a	n/a	n/a
499.3119955	2.7	forage	4.9	41.76239458	238.3333333	20	141.5929782	0	n/a	n/a	n/a	n/a
507.5734405	1.8	engage	1.924	n/a	n/a	n/a	n/a	n/a	0	152.6	47	1
519.1725799	2.7	forage	5.893	84.61226632	276.6666667	5	114.494115	1	n/a	n/a	n/a	n/a
531.1215669	2.7	forage	10.394	51.72635515	275	40	143.9378301	0	n/a	n/a	n/a	n/a
545.8372373	1.8	engage	2.526	n/a	n/a	n/a	n/a	n/a	0	187.6	75.6	1
562.2358593	2.7	forage	2.59	172.685596	378.3333333	20	66.37264222	1	n/a	n/a	n/a	n/a
570.818617	2.7	forage	9.911	25.21080932	296.6666667	40	198.5402897	0	n/a	n/a	n/a	n/a
589.2339353	1.8	engage	2.793	n/a	n/a	n/a	n/a	n/a	0	69	144.3	0
602.4206402	2.7	forage	10.801	129.9158409	250	5	51.46999648	1	n/a	n/a	n/a	n/a
621.5480628	2.7	forage	2.358	-138.4194055	170	40	267.0212514	0	n/a	n/a	n/a	n/a
626.9976173	1.8	engage	2.845	n/a	n/a	n/a	n/a	n/a	0	269.5	102.9	1
639.2492904	2.7	forage	4.403	-69.18375333	305	5	286	0	n/a	n/a	n/a	n/a
648.1127527	1.8	engage	3.218	n/a	n/a	n/a	n/a	n/a	0	213.2	22.8	1
659.6146391	2.7	forage	26.718	-46.59123284	343.3333333	20	274.5648358	1	n/a	n/a	n/a	n/a
692.4925822	2.7	forage	4.342	-102.3253592	281.6666667	20	288.8317489	0	n/a	n/a	n/a	n/a
699.9254495	1.8	engage	2.702	n/a	n/a	n/a	n/a	n/a	0	356.2	204.05	1
710.3078658	2.7	forage	2.343	219.5906745	445	40	36.65089784	1	n/a	n/a	n/a	n/a
721.1237199	2.7	forage	3.246	-56.93602434	293.3333333	40	277.8350687	0	n/a	n/a	n/a	n/a
727.423312	1.8	engage	3.276	n/a	n/a	n/a	n/a	n/a	0	122.5	420.75	0
737.4058609	2.7	forage	12.773	-19.84029811	248.3333333	5	194.3463357	0	n/a	n/a	n/a	n/a
754.7545762	1.8	engage	1.521	n/a	n/a	n/a	n/a	n/a	0	314.5	171.6	1
766.3081554	2.7	forage	4.052	-36.54324564	346.6666667	40	253.7195564	0	n/a	n/a	n/a	n/a
775.7196208	1.8	engage	1.844	n/a	n/a	n/a	n/a	n/a	0	367.5	229.1	1
787.7186115	2.7	forage	4.325	56.65281257	293.3333333	40	136.3272974	1	n/a	n/a	n/a	n/a
802.950746	2.7	forage	8.787	-29.06832487	265	40	206.7915346	0	n/a	n/a	n/a	n/a
816.1664996	1.8	engage	1.771	n/a	n/a	n/a	n/a	n/a	0	93	273	0
824.8491335	2.7	forage	3.33	-63.12572138	225	20	241.892938	0	n/a	n/a	n/a	n/a
835.3984042	1.8	engage	10.027	n/a	n/a	n/a	n/a	n/a	0	85.5	163.3	0
854.6634586	2.7	forage	3.476	-55.41823349	288.3333333	40	258.1757708	0	n/a	n/a	n/a	n/a
862.6462916	1.8	engage	1.253	n/a	n/a	n/a	n/a	n/a	0	321.9	306	1
871.9295335	2.7	forage	3.584	77.31613266	276.6666667	20	95.93503848	1	n/a	n/a	n/a	n/a
883.5113258	2.7	forage	3.749	-10.36719984	235	40	167.0989135	0	n/a	n/a	n/a	n/a
892.377296	1.8	engage	5.697	n/a	n/a	n/a	n/a	n/a	0	81.6	100.65	1
904.8263772	2.7	forage	4.263	245.555289	480	20	20.58799859	1	n/a	n/a	n/a	n/a
916.17548	2.7	forage	4.491	-39.9632547	320	40	280.826719	0	n/a	n/a	n/a	n/a
924.9915219	1.8	engage	2.952	n/a	n/a	n/a	n/a	n/a	0	405.6	190	1
936.3572561	2.7	forage	5.397	146.3857972	268.3333333	20	54.30478849	1	n/a	n/a	n/a	n/a
951.2227624	2.7	forage	4.389	115.7435592	243.3333333	20	81.22327851	1	n/a	n/a	n/a	n/a
963.2051991	2.7	forage	3.503	-87.22788089	163.3333333	5	222.7985514	0	n/a	n/a	n/a	n/a
970.1546834	1.8	engage	2.543	n/a	n/a	n/a	n/a	n/a	0	235.2	376.2	0
980.5038999	2.7	forage	15.099	28.29283068	288.3333333	5	182.0054323	0	n/a	n/a	n/a	n/a
1001.102343	1.8	engage	2.667	n/a	n/a	n/a	n/a	n/a	0	142.4	248.2	0
1013.884755	2.7	forage	4.487	224.3366849	438.3333333	20	25.59501534	1	n/a	n/a	n/a	n/a
1024.933787	2.7	forage	4.462	-31.42249049	310	5	262.5210502	0	n/a	n/a	n/a	n/a
1033.766502	1.8	engage	2.604	n/a	n/a	n/a	n/a	n/a	0	270.3	444.6	0
1043.632391	2.7	forage	3.178	145.3034472	308.3333333	20	55	1	n/a	n/a	n/a	n/a
1053.014984	2.7	forage	3.644	-1.102231611	241.6666667	5	187.7032342	0	n/a	n/a	n/a	n/a
1063.080918	1.8	engage	19.45	n/a	n/a	n/a	n/a	n/a	0	142.2	112	0
1090.54538	2.7	forage	3.489	95.86482571	308.3333333	5	109.7302701	1	n/a	n/a	n/a	n/a
1101.194626	2.7	forage	3	-89.81874487	216.6666667	20	247.5497963	0	n/a	n/a	n/a	n/a
1107.594142	1.8	engage	1.784	n/a	n/a	n/a	n/a	n/a	0	237.15	414.05	0
1116.260134	2.7	forage	4.622	-91.6611153	283.3333333	20	288.8317489	0	n/a	n/a	n/a	n/a
1127.992644	1.8	engage	3.378	n/a	n/a	n/a	n/a	n/a	0	215.8	376.3	0
1139.508279	2.7	forage	2.551	177.2850024	348.3333333	5	38.15142598	1	n/a	n/a	n/a	n/a
1149.279041	2.7	forage	4.238	-22.85018862	238.3333333	5	211.3285298	0	n/a	n/a	n/a	n/a
1159.706793	1.8	engage	3.44	n/a	n/a	n/a	n/a	n/a	0	287.3	147.6	1
1172.039131	2.7	forage	9.252	-79.73435106	225	5	236.5	0	n/a	n/a	n/a	n/a
1188.704594	1.8	engage	1.587	n/a	n/a	n/a	n/a	n/a	0	380.55	61.95	1
1199.437118	2.7	forage	3.3	-137.3307295	163.3333333	40	258.5	0	n/a	n/a	n/a	n/a
1208.036456	1.8	engage	2.376	n/a	n/a	n/a	n/a	n/a	0	27.2	263.2	0
1221.41868	2.7	forage	17.649	-73.45721543	311.6666667	20	275.9685378	0	n/a	n/a	n/a	n/a
1243.150477	1.8	engage	3.363	n/a	n/a	n/a	n/a	n/a	0	140.25	42.4	1
1253.416298	2.7	forage	2.356	-48.18998877	226.6666667	20	222.3780494	0	n/a	n/a	n/a	n/a
1261.299068	1.8	engage	1.377	n/a	n/a	n/a	n/a	n/a	0	275	142.6	1
1271.701551	2.7	forage	14.032	183.6648844	313.3333333	40	25.60110155	1	n/a	n/a	n/a	n/a
1292.579929	2.7	forage	3.68	-20.19827809	211.6666667	20	194.3463357	0	n/a	n/a	n/a	n/a
1304.59572	1.8	engage	1.711	n/a	n/a	n/a	n/a	n/a	0	307.1	272.25	1
1314.42832	2.7	forage	4.719	238.8109166	463.3333333	40	20.30581963	1	n/a	n/a	n/a	n/a
1325.27744	2.7	forage	11.58	-5.760600573	325	40	250.6844726	0	n/a	n/a	n/a	n/a
1341.026243	1.8	engage	2.761	n/a	n/a	n/a	n/a	n/a	0	235.2	168	1
1352.725375	2.7	forage	2.717	-106.768018	176.6666667	20	247.6778834	0	n/a	n/a	n/a	n/a
1359.891517	1.8	engage	2.462	n/a	n/a	n/a	n/a	n/a	0	134	290.4	0
1373.273757	2.7	forage	4.761	55.99070637	213.3333333	40	99.89550324	0	n/a	n/a	n/a	n/a
1381.523186	1.8	engage	1.615	n/a	n/a	n/a	n/a	n/a	0	134.9	99.45	1
1392.17233	2.7	forage	8.15	-23.2437084	233.3333333	20	196.5227101	0	n/a	n/a	n/a	n/a
1407.58788	1.8	engage	3.407	n/a	n/a	n/a	n/a	n/a	0	184.3	150.4	1
1418.254375	2.7	forage	2.447	1.73075298	251.6666667	5	174.4206277	0	n/a	n/a	n/a	n/a
1426.11971	1.8	engage	1.491	n/a	n/a	n/a	n/a	n/a	0	177	102.3	1
1437.485446	2.7	forage	6.614	-99.48757943	191.6666667	40	258.8560435	0	n/a	n/a	n/a	n/a
1451.484494	1.8	engage	4.543	n/a	n/a	n/a	n/a	n/a	0	175.2	356.5	0
1466.183324	2.7	forage	6.842	207.0757608	428.3333333	20	40.42545647	1	n/a	n/a	n/a	n/a
1480.915502	2.7	forage	3.529	-54.54582097	290	40	269.2441024	0	n/a	n/a	n/a	n/a
1490.83143	1.8	engage	6.706	n/a	n/a	n/a	n/a	n/a	0	189.2	257.4	0
1506.463657	2.7	forage	2.963	-59.13261238	266.6666667	20	236.1270811	0	n/a	n/a	n/a	n/a
1512.613147	1.8	engage	4.389	n/a	n/a	n/a	n/a	n/a	0	198	86	1
1525.879228	2.7	forage	2.052	-137.3968295	220	20	286.3217393	0	n/a	n/a	n/a	n/a
1533.044906	1.8	engage	1.152	n/a	n/a	n/a	n/a	n/a	0	450.5	209.1	1
1542.127446	2.7	forage	4.957	148.3626176	351.6666667	20	93.5	1	n/a	n/a	n/a	n/a
1555.493168	2.7	forage	4.052	-3.787708532	308.3333333	40	231	0	n/a	n/a	n/a	n/a
1565.992375	1.8	engage	3.152	n/a	n/a	n/a	n/a	n/a	0	184.8	13.8	1
1577.341504	2.7	forage	4.413	-0.702957598	281.6666667	40	195.5859866	0	n/a	n/a	n/a	n/a
1586.207437	1.8	engage	1.876	n/a	n/a	n/a	n/a	n/a	0	125.4	207.1	0
1599.506937	2.7	forage	3.641	-51.05213185	326.6666667	5	270.8417333	0	n/a	n/a	n/a	n/a
1608.472479	1.8	engage	1.794	n/a	n/a	n/a	n/a	n/a	0	204.45	326.4	0
1619.054948	2.7	forage	3.412	-72.12197408	300	40	263.3526483	0	n/a	n/a	n/a	n/a
1626.821059	1.8	engage	1.757	n/a	n/a	n/a	n/a	n/a	0	177.6	70.8	1
1638.636817	2.7	forage	4.845	-97.22638533	155	40	230.1595493	0	n/a	n/a	n/a	n/a
1648.685991	1.8	engage	14.413	n/a	n/a	n/a	n/a	n/a	0	191.4	123.5	1
1672.034747	2.7	forage	2.817	4.852205623	316.6666667	40	201.9181379	0	n/a	n/a	n/a	n/a
1679.133747	1.8	engage	8.868	n/a	n/a	n/a	n/a	n/a	0	136.5	136.95	1
1698.998899	2.7	forage	11.156	48.70539879	283.3333333	40	152.5835723	1	n/a	n/a	n/a	n/a
1718.430792	2.7	forage	2.604	-78.23721644	211.6666667	5	237.3033801	0	n/a	n/a	n/a	n/a
1725.630146	1.8	engage	2.782	n/a	n/a	n/a	n/a	n/a	0	380.7	134.4	1
1737.362496	2.7	forage	2.818	-80.96022501	191.6666667	5	239.1306272	0	n/a	n/a	n/a	n/a
1746.495223	1.8	engage	3.764	n/a	n/a	n/a	n/a	n/a	0	142.2	117.5	1
1759.72743	2.7	forage	8.867	65.46681086	308.3333333	5	147.3831799	0	n/a	n/a	n/a	n/a
1772.009902	1.8	engage	2.465	n/a	n/a	n/a	n/a	n/a	0	106.7	178.35	0
1782.892456	2.7	forage	3.584	-19.17280653	350	40	258.7309994	0	n/a	n/a	n/a	n/a
1790.775154	1.8	engage	2.595	n/a	n/a	n/a	n/a	n/a	0	241.3	441.15	0
1802.357508	2.7	forage	13.036	199.5636588	383.3333333	5	52.77244605	1	n/a	n/a	n/a	n/a
1823.60595	2.7	forage	6.732	-46.41958319	305	5	275	0	n/a	n/a	n/a	n/a
1834.588419	1.8	engage	2.527	n/a	n/a	n/a	n/a	n/a	0	175	43.45	1
1844.387636	2.7	forage	10.032	117.3994149	260	20	92.45427795	1	n/a	n/a	n/a	n/a
1861.453031	2.7	forage	2.485	-96.23696997	158.3333333	40	232.8811931	0	n/a	n/a	n/a	n/a
1871.435658	1.8	engage	1.985	n/a	n/a	n/a	n/a	n/a	0	300.2	254.25	1
1882.518106	2.7	forage	13.221	109.0061768	330	40	121	1	n/a	n/a	n/a	n/a
1902.916485	2.7	forage	4.463	-60.61971396	276.6666667	20	264	0	n/a	n/a	n/a	n/a
1911.532508	1.8	engage	2.591	n/a	n/a	n/a	n/a	n/a	0	321.6	73.8	1
1921.948474	2.7	forage	4.942	228.398144	438.3333333	5	20.30222323	1	n/a	n/a	n/a	n/a
1933.214185	2.7	forage	3.422	-50.97483695	291.6666667	5	270.9133846	0	n/a	n/a	n/a	n/a
1941.130269	1.8	engage	3.264	n/a	n/a	n/a	n/a	n/a	0	190.8	256.2	0
1955.479135	2.7	forage	5.875	66.74744228	338.3333333	40	165	1	n/a	n/a	n/a	n/a
1969.844755	2.7	forage	5.991	-48.32746341	288.3333333	40	259.8461596	0	n/a	n/a	n/a	n/a
1980.977192	1.8	engage	1.882	n/a	n/a	n/a	n/a	n/a	0	69	213.6	0
1993.526997	2.7	forage	5.629	-14.31469913	341.6666667	40	220	1	n/a	n/a	n/a	n/a
2008.658399	2.7	forage	2.505	-7.450446825	320	5	215.5009054	0	n/a	n/a	n/a	n/a
2015.391307	1.8	engage	4.546	n/a	n/a	n/a	n/a	n/a	0	129.15	130.9	1
2031.093136	2.7	forage	5.376	75.79018996	295	5	110.8130627	0	n/a	n/a	n/a	n/a
2040.639339	1.8	engage	2.708	n/a	n/a	n/a	n/a	n/a	0	77.7	81.7	0
2052.171753	2.7	forage	3.894	205.1921516	388.3333333	40	26.39784216	1	n/a	n/a	n/a	n/a
2062.270965	2.7	forage	5.156	-59.31241386	250	40	253.0517328	0	n/a	n/a	n/a	n/a
2071.55363	1.8	engage	2.586	n/a	n/a	n/a	n/a	n/a	0	217.3	303.8	0