onset	duration	stage	RT	SearchEvidence	SearchValue	SearchCosts	OfferValue	Choice_isForage	ExcludeBlock	ExpValueLeft	ExpValueRight	Choice_isLeft
6.018728867	2.7	forage	3.101	12.2264088	368.3333333	5	231	1	n/a	n/a	n/a	n/a
16.09771925	2.7	forage	3.33	1.766901397	313.3333333	5	228.98823	0	n/a	n/a	n/a	n/a
23.91385575	1.8	engage	1.752	n/a	n/a	n/a	n/a	n/a	0	237.5	253	0
38.72934603	2.7	forage	4.235	-62.47256007	271.6666667	20	247.6778834	0	n/a	n/a	n/a	n/a
47.26200864	1.8	engage	3.262	n/a	n/a	n/a	n/a	n/a	0	184	146.4	1
59.0778006	2.7	forage	3.605	-9.818112771	221.6666667	20	176.5164982	0	n/a	n/a	n/a	n/a
67.01052343	1.8	engage	1.801	n/a	n/a	n/a	n/a	n/a	0	288.75	63.55	1
75.44313042	2.7	forage	4.457	-81.60431233	190	5	212.7106534	0	n/a	n/a	n/a	n/a
83.12598828	1.8	engage	3.086	n/a	n/a	n/a	n/a	n/a	0	272	288.6	1
93.5917737	2.7	forage	4.502	24.86782355	258.3333333	5	164.2779538	0	n/a	n/a	n/a	n/a
102.3411147	1.8	engage	3.248	n/a	n/a	n/a	n/a	n/a	0	117	184	0
116.2585845	2.7	forage	2.699	29.8315913	251.6666667	5	139.471933	0	n/a	n/a	n/a	n/a
123.4062541	1.8	engage	1.624	n/a	n/a	n/a	n/a	n/a	0	44.2	213.3	0
132.8388204	2.7	forage	4.677	-0.519006422	325	20	230.674111	1	n/a	n/a	n/a	n/a
144.121242	2.7	forage	5.754	78.7730245	380	5	169.2169156	0	n/a	n/a	n/a	n/a
153.1206512	1.8	engage	3.924	n/a	n/a	n/a	n/a	n/a	0	142.8	235.95	0
165.172903	2.7	forage	3.625	-132.6961705	193.3333333	20	272.4520899	0	n/a	n/a	n/a	n/a
174.2856504	1.8	engage	2.735	n/a	n/a	n/a	n/a	n/a	0	388.7	343.2	1
187.105046	2.7	forage	2.518	-87.33994098	211.6666667	40	250.3425381	0	n/a	n/a	n/a	n/a
194.7174108	1.8	engage	3.144	n/a	n/a	n/a	n/a	n/a	0	280.6	360	0
208.937473	2.7	forage	5.086	59.1121959	206.6666667	40	111.0830693	0	n/a	n/a	n/a	n/a
217.3822799	1.8	engage	1.646	n/a	n/a	n/a	n/a	n/a	0	124.5	196.9	0
225.7649249	2.7	forage	3.128	216.2473517	451.6666667	40	35.55703938	1	n/a	n/a	n/a	n/a
234.5476517	2.7	forage	4.53	8.996584679	328.3333333	40	233.8508375	0	n/a	n/a	n/a	n/a
245.4467912	1.8	engage	3.277	n/a	n/a	n/a	n/a	n/a	0	285.6	247.25	1
258.4650654	2.7	forage	3.645	186.255066	341.6666667	5	47.22541623	1	n/a	n/a	n/a	n/a
269.1782648	2.7	forage	4.691	-79.9032158	260	40	277.3927116	0	n/a	n/a	n/a	n/a
278.3110125	1.8	engage	2.671	n/a	n/a	n/a	n/a	n/a	0	32.25	344.25	0
289.7100518	2.7	forage	6.783	27.13556494	286.6666667	5	159.5	1	n/a	n/a	n/a	n/a
303.075642	2.7	forage	3.882	23.11303925	255	5	162.1394799	0	n/a	n/a	n/a	n/a
311.2250943	1.8	engage	2.988	n/a	n/a	n/a	n/a	n/a	0	163.4	251.2	0
320.9575769	2.7	forage	3.503	30.72764784	251.6666667	5	145.4339319	0	n/a	n/a	n/a	n/a
327.9071545	1.8	engage	4.289	n/a	n/a	n/a	n/a	n/a	0	151.2	144	1
342.2226912	2.7	forage	2.926	108.6302701	318.3333333	40	104.5	1	n/a	n/a	n/a	n/a
354.6908572	2.7	forage	2.524	-105.9400902	236.6666667	20	278.8232483	0	n/a	n/a	n/a	n/a
362.6377733	1.8	engage	1.911	n/a	n/a	n/a	n/a	n/a	0	270.4	36	1
375.8223474	2.7	forage	3.017	29.26383985	203.3333333	5	131.4721593	0	n/a	n/a	n/a	n/a
383.9528388	1.8	engage	1.676	n/a	n/a	n/a	n/a	n/a	0	124.8	94.4	1
395.5019119	2.7	forage	4.391	100.9668243	271.6666667	40	93.5	0	n/a	n/a	n/a	n/a
403.3513657	1.8	engage	2.053	n/a	n/a	n/a	n/a	n/a	0	34	12.3	0
414.8004362	2.7	forage	7.469	163.1180323	266.6666667	5	35.56450883	1	n/a	n/a	n/a	n/a
431.1535119	2.7	forage	3.974	-41.680784	196.6666667	40	208.3446255	0	n/a	n/a	n/a	n/a
439.5485181	1.8	engage	3.567	n/a	n/a	n/a	n/a	n/a	0	29.4	235.95	0
452.2641665	2.7	forage	2.637	-113.5598997	161.6666667	5	244.937981	0	n/a	n/a	n/a	n/a
459.0803554	1.8	engage	2.565	n/a	n/a	n/a	n/a	n/a	0	93.6	408	0
469.5814107	2.7	forage	4.112	163.3521671	435	5	82.07092199	1	n/a	n/a	n/a	n/a
482.5631844	2.7	forage	2.988	-17.17077444	318.3333333	5	245.5869926	0	n/a	n/a	n/a	n/a
489.678071	1.8	engage	4.48	n/a	n/a	n/a	n/a	n/a	0	294.55	207	1
502.0269923	2.7	forage	2.601	200.0709907	411.6666667	20	40.60444646	1	n/a	n/a	n/a	n/a
510.4097143	2.7	forage	3.066	-31.9743809	308.3333333	5	256.1438056	0	n/a	n/a	n/a	n/a
517.8924932	1.8	engage	1.608	n/a	n/a	n/a	n/a	n/a	0	52	252.5	0
530.3774092	2.7	forage	5.852	147.8618698	290	5	63.6050752	0	n/a	n/a	n/a	n/a
540.5741561	1.8	engage	2.952	n/a	n/a	n/a	n/a	n/a	0	96.8	46.2	1
554.4589129	2.7	forage	4.218	219.8412236	433.3333333	5	26.39784216	1	n/a	n/a	n/a	n/a
566.2887036	2.7	forage	3.116	-26.35278574	300	5	253.4935365	0	n/a	n/a	n/a	n/a
575.70474	1.8	engage	3.651	n/a	n/a	n/a	n/a	n/a	0	227.5	257.15	1
590.4402795	2.7	forage	3.109	-124.6813842	163.3333333	40	239.348071	0	n/a	n/a	n/a	n/a
597.0197682	1.8	engage	4.242	n/a	n/a	n/a	n/a	n/a	0	150.5	272.8	0
612.1694853	2.7	forage	3.667	232.9149992	455	40	20.56254716	1	n/a	n/a	n/a	n/a
624.2711532	2.7	forage	8.046	4.881345673	321.6666667	20	238.0187868	0	n/a	n/a	n/a	n/a
635.3335156	1.8	engage	3.687	n/a	n/a	n/a	n/a	n/a	0	312.75	100.45	1
650.4189768	2.7	forage	3.203	178.2491139	433.3333333	20	63.0313113	1	n/a	n/a	n/a	n/a
660.9652453	2.7	forage	4.856	-35.86431937	310	5	257.1281123	0	n/a	n/a	n/a	n/a
672.1140161	1.8	engage	4.795	n/a	n/a	n/a	n/a	n/a	0	313.65	170	1
684.9963359	2.7	forage	4.625	6.054048254	221.6666667	20	159.5	0	n/a	n/a	n/a	n/a
694.0122934	1.8	engage	2.536	n/a	n/a	n/a	n/a	n/a	0	98.6	5.4	1
705.3280566	2.7	forage	2.812	198.8003554	406.6666667	20	49.5	1	n/a	n/a	n/a	n/a
718.8104053	2.7	forage	2.69	-24.61915564	308.3333333	20	256.5562849	0	n/a	n/a	n/a	n/a
724.8098702	1.8	engage	2.011	n/a	n/a	n/a	n/a	n/a	0	134.75	58.8	1
737.6755544	2.7	forage	4.321	-76.11375518	308.3333333	5	291.5	0	n/a	n/a	n/a	n/a
745.3916854	1.8	engage	1.67	n/a	n/a	n/a	n/a	n/a	0	445.2	42	1
755.6788491	2.7	forage	5.048	203.6786027	416.6666667	20	48.45261808	1	n/a	n/a	n/a	n/a
772.0255503	2.7	forage	3.397	34.93045454	336.6666667	20	212.7006941	0	n/a	n/a	n/a	n/a
781.5555477	1.8	engage	3.713	n/a	n/a	n/a	n/a	n/a	0	202.95	135.85	1
793.1380181	2.7	forage	4.362	179.2464598	380	20	51.20220311	1	n/a	n/a	n/a	n/a
808.003522	2.7	forage	4.408	0.024160421	311.6666667	20	221.3727177	0	n/a	n/a	n/a	n/a
819.8026664	1.8	engage	1.819	n/a	n/a	n/a	n/a	n/a	0	375.9	76.5	1
830.7850302	2.7	forage	3.54	-36.3697148	248.3333333	5	222.9296816	0	n/a	n/a	n/a	n/a
838.4012101	1.8	engage	1.515	n/a	n/a	n/a	n/a	n/a	0	79.2	207.9	0
851.0862971	2.7	forage	3.792	211.8794611	401.6666667	20	25.32334893	1	n/a	n/a	n/a	n/a
864.119502	2.7	forage	2.59	-10.44585953	295	40	233.8616267	0	n/a	n/a	n/a	n/a
871.2153425	1.8	engage	3.061	n/a	n/a	n/a	n/a	n/a	0	149.5	202.8	0
881.5811211	2.7	forage	4.992	93.39072481	285	40	115.3893416	0	n/a	n/a	n/a	n/a
891.0638158	1.8	engage	2.477	n/a	n/a	n/a	n/a	n/a	0	101.85	43.75	0
903.2829548	2.7	forage	3.14	173.4831665	285	40	25.60110155	1	n/a	n/a	n/a	n/a
912.6621155	2.7	forage	7.341	-113.5796523	173.3333333	40	256.1172476	0	n/a	n/a	n/a	n/a
923.0613581	1.8	engage	1.526	n/a	n/a	n/a	n/a	n/a	0	132.5	162.5	0
934.4969187	2.7	forage	3.151	194.3661251	373.3333333	20	36.65643076	1	n/a	n/a	n/a	n/a
945.8466185	2.7	forage	4.032	88.178824	303.3333333	5	143.6349027	0	n/a	n/a	n/a	n/a
954.9589362	1.8	engage	3.767	n/a	n/a	n/a	n/a	n/a	0	167.5	112.05	1
965.8080121	2.7	forage	4.404	97.71110608	250	40	82.13897691	0	n/a	n/a	n/a	n/a
975.3406866	1.8	engage	1.929	n/a	n/a	n/a	n/a	n/a	0	113.75	112.8	1
990.3922189	2.7	forage	2.454	9.586283386	293.3333333	20	212.7067803	0	n/a	n/a	n/a	n/a
996.9723158	1.8	engage	3.617	n/a	n/a	n/a	n/a	n/a	0	68.4	328	0
1009.354961	2.7	forage	6.395	95.72674245	333.3333333	20	132.7519239	0	n/a	n/a	n/a	n/a
1021.087215	1.8	engage	4.013	n/a	n/a	n/a	n/a	n/a	0	74.2	213.2	0
1034.938893	2.7	forage	6.402	174.8942458	301.6666667	40	30.84382073	0	n/a	n/a	n/a	n/a
1046.601837	1.8	engage	3.914	n/a	n/a	n/a	n/a	n/a	0	48.3	19.5	1
1058.467627	2.7	forage	5.105	110.8955955	243.3333333	20	65.85061114	0	n/a	n/a	n/a	n/a
1067.016963	1.8	engage	3.141	n/a	n/a	n/a	n/a	n/a	0	23.85	103.8	0
1081.068799	2.7	forage	2.738	-51.63271968	291.6666667	40	272.3358986	0	n/a	n/a	n/a	n/a
1088.94864	1.8	engage	3.112	n/a	n/a	n/a	n/a	n/a	0	352.5	411.6	0
1102.164182	2.7	forage	3.288	208.5251832	405	20	26.39784216	1	n/a	n/a	n/a	n/a
1113.749967	2.7	forage	6.801	-3.957403216	296.6666667	40	227.820507	0	n/a	n/a	n/a	n/a
1125.029187	1.8	engage	1.903	n/a	n/a	n/a	n/a	n/a	0	112.5	140.4	0
1137.681164	2.7	forage	2.958	-47.86847073	250	40	236.3904482	0	n/a	n/a	n/a	n/a
1145.977518	1.8	engage	3.764	n/a	n/a	n/a	n/a	n/a	0	182.75	76	0
1160.596461	2.7	forage	4.61	116.6613785	283.3333333	20	75.99217846	0	n/a	n/a	n/a	n/a
1169.559142	1.8	engage	1.783	n/a	n/a	n/a	n/a	n/a	0	61.6	120	0
1179.57906	2.7	forage	2.427	191.8897004	396.6666667	40	43.89210804	1	n/a	n/a	n/a	n/a
1190.290737	2.7	forage	5.234	-13.03266603	286.6666667	40	232.2493335	0	n/a	n/a	n/a	n/a
1199.623414	1.8	engage	2.045	n/a	n/a	n/a	n/a	n/a	0	154.5	315.1	0
1211.239199	2.7	forage	2.589	139.4274852	330	20	93.5	1	n/a	n/a	n/a	n/a
1220.908674	2.7	forage	3.106	-43.17271767	261.6666667	20	249.5386047	0	n/a	n/a	n/a	n/a
1229.337847	1.8	engage	5.699	n/a	n/a	n/a	n/a	n/a	0	75.6	310.5	0
1246.953081	2.7	forage	3.539	217.600778	401.6666667	40	25.32334893	1	n/a	n/a	n/a	n/a
1256.555381	2.7	forage	3.059	76.06685445	323.3333333	40	166.5735627	0	n/a	n/a	n/a	n/a
1265.068373	1.8	engage	1.528	n/a	n/a	n/a	n/a	n/a	0	179.85	122.1	1
1277.967355	2.7	forage	2.709	81.23379106	335	40	132	0	n/a	n/a	n/a	n/a
1283.900239	1.8	engage	1.864	n/a	n/a	n/a	n/a	n/a	0	26.6	67.2	1
1295.665992	2.7	forage	3.644	-70.53212615	306.6666667	5	280.3057945	0	n/a	n/a	n/a	n/a
1304.565362	1.8	engage	5.807	n/a	n/a	n/a	n/a	n/a	0	84	178.5	0
1319.335401	2.7	forage	3.222	81.38810422	273.3333333	40	96.43078819	0	n/a	n/a	n/a	n/a
1328.863551	1.8	engage	2.263	n/a	n/a	n/a	n/a	n/a	0	81.4	51.3	1
1340.86257	2.7	forage	2.71	-101.2464396	175	5	247.8737488	0	n/a	n/a	n/a	n/a
1348.79525	1.8	engage	4.394	n/a	n/a	n/a	n/a	n/a	0	281.6	374.9	0
1362.310889	2.7	forage	3.799	-6.282465671	310	5	196.5263065	0	n/a	n/a	n/a	n/a
1371.393589	1.8	engage	3.93	n/a	n/a	n/a	n/a	n/a	0	125.8	86.8	0
1385.225792	2.7	forage	2.979	-97.97058163	185	40	245.2624868	0	n/a	n/a	n/a	n/a
1393.44182	1.8	engage	4.082	n/a	n/a	n/a	n/a	n/a	0	155.8	291.4	0
1408.907277	2.7	forage	4.817	-55.68973392	293.3333333	40	264	0	n/a	n/a	n/a	n/a
1417.206743	1.8	engage	1.951	n/a	n/a	n/a	n/a	n/a	0	196.8	30.15	1
1428.309784	2.7	forage	2.648	-19.88028268	270	40	198	0	n/a	n/a	n/a	n/a
1436.255372	1.8	engage	2.046	n/a	n/a	n/a	n/a	n/a	0	181.8	45	0
1445.337806	2.7	forage	3.282	222.4465654	441.6666667	5	32.28846637	1	n/a	n/a	n/a	n/a
1458.005733	2.7	forage	3.712	-73.44133595	281.6666667	20	286.3217393	0	n/a	n/a	n/a	n/a
1466.169609	1.8	engage	4.234	n/a	n/a	n/a	n/a	n/a	0	270.3	295.8	1
1477.50205	2.7	forage	2.374	-115.9368979	175	20	248.2740556	0	n/a	n/a	n/a	n/a
1483.934872	1.8	engage	2.215	n/a	n/a	n/a	n/a	n/a	0	262.15	133.2	1
1493.950727	2.7	forage	2.533	-75.00431233	283.3333333	5	267.5579448	0	n/a	n/a	n/a	n/a
1502.916856	1.8	engage	1.001	n/a	n/a	n/a	n/a	n/a	0	98	137.8	0
1514.049162	2.7	forage	3.363	27.93265597	243.3333333	20	161.4423319	0	n/a	n/a	n/a	n/a
1520.798723	1.8	engage	2.517	n/a	n/a	n/a	n/a	n/a	0	268.5	84	1
1533.031039	2.7	forage	3.133	3.533563033	191.6666667	5	118.894447	0	n/a	n/a	n/a	n/a
1541.5805	1.8	engage	2.313	n/a	n/a	n/a	n/a	n/a	0	51.7	83.95	0
1556.862535	2.7	forage	5.326	128.3986587	346.6666667	20	107.5049293	1	n/a	n/a	n/a	n/a
1570.511537	2.7	forage	3.764	-31.63963919	263.3333333	40	227.0907148	0	n/a	n/a	n/a	n/a
1580.69409	1.8	engage	3.126	n/a	n/a	n/a	n/a	n/a	0	288.6	187.05	1
1595.609661	2.7	forage	3.675	-41.12083396	333.3333333	40	253.0517328	0	n/a	n/a	n/a	n/a
1602.425772	1.8	engage	2.459	n/a	n/a	n/a	n/a	n/a	0	211.15	396.9	0
1613.974883	2.7	forage	4.607	194.176807	366.6666667	20	46.92580856	1	n/a	n/a	n/a	n/a
1627.928205	2.7	forage	2.775	12.45899435	288.3333333	40	212.7067803	0	n/a	n/a	n/a	n/a
1634.823349	1.8	engage	1.997	n/a	n/a	n/a	n/a	n/a	0	94.05	282.9	0
1648.73886	2.7	forage	3.745	-9.22706772	205	5	154	0	n/a	n/a	n/a	n/a
1659.721368	1.8	engage	4.612	n/a	n/a	n/a	n/a	n/a	0	107.8	17.7	1
1675.341607	2.7	forage	3.304	204.432039	366.6666667	5	35.56450883	1	n/a	n/a	n/a	n/a
1687.202691	2.7	forage	2.563	-100.1296011	220	20	274.3006388	0	n/a	n/a	n/a	n/a
1693.118866	1.8	engage	2.813	n/a	n/a	n/a	n/a	n/a	0	330.2	235	1