onset	duration	stage	RT	SearchEvidence	SearchValue	SearchCosts	OfferValue	Choice_isForage	ExcludeBlock	ExpValueLeft	ExpValueRight	Choice_isLeft
6.018310741	2.7	forage	5.13	198.1589424	408.3333333	40	43.89210804	1	n/a	n/a	n/a	n/a
17.81499554	2.7	forage	3.939	-50.1312325	278.3333333	40	262.6377949	0	n/a	n/a	n/a	n/a
25.89777813	1.8	engage	5.121	n/a	n/a	n/a	n/a	n/a	0	405.6	75.6	1
40.14663564	2.7	forage	3.249	186.8285348	323.3333333	5	25.32334893	1	n/a	n/a	n/a	n/a
51.9290821	2.7	forage	3.234	-73.27260031	215	40	245.8404004	0	n/a	n/a	n/a	n/a
60.66181864	1.8	engage	2.78	n/a	n/a	n/a	n/a	n/a	0	252	111.25	1
73.69402535	2.7	forage	3.98	8.248386231	250	20	167.5454203	1	n/a	n/a	n/a	n/a
85.02647978	2.7	forage	4.672	-45.65969183	223.3333333	40	202.1364116	0	n/a	n/a	n/a	n/a
94.1258555	1.8	engage	3.052	n/a	n/a	n/a	n/a	n/a	0	217	158	0
106.4082239	2.7	forage	4.002	244.2324045	471.6666667	40	20.30222323	0	n/a	n/a	n/a	n/a
116.8741623	1.8	engage	3.674	n/a	n/a	n/a	n/a	n/a	0	14.4	8.1	1
132.5395076	2.7	forage	3.201	25.66166859	236.6666667	20	126.5	0	n/a	n/a	n/a	n/a
139.0224294	1.8	engage	2.356	n/a	n/a	n/a	n/a	n/a	0	85.1	41	1
151.5214696	2.7	forage	4.753	-55.80970608	328.3333333	5	268.185378	0	n/a	n/a	n/a	n/a
161.7706803	1.8	engage	2.529	n/a	n/a	n/a	n/a	n/a	0	301.35	90.35	1
171.2365648	2.7	forage	3.251	16.85591436	338.3333333	5	212.6827121	0	n/a	n/a	n/a	n/a
178.002779	1.8	engage	5.232	n/a	n/a	n/a	n/a	n/a	0	63.75	178	0
192.018329	2.7	forage	5.848	241.7041916	458.3333333	40	20.56254716	1	n/a	n/a	n/a	n/a
203.9841379	2.7	forage	3.836	4.941322536	335	5	247.539837	0	n/a	n/a	n/a	n/a
214.0000612	1.8	engage	2.283	n/a	n/a	n/a	n/a	n/a	0	254.8	125.55	1
228.7822019	2.7	forage	5.42	213.6337106	385	40	20.56254716	1	n/a	n/a	n/a	n/a
241.7312464	2.7	forage	2.863	-45.10831782	248.3333333	40	242.3809416	0	n/a	n/a	n/a	n/a
248.8640374	1.8	engage	4.307	n/a	n/a	n/a	n/a	n/a	0	384.85	256.5	1
263.5296448	2.7	forage	3.528	-81.77435743	246.6666667	40	269.9913234	0	n/a	n/a	n/a	n/a
271.5788984	1.8	engage	2.952	n/a	n/a	n/a	n/a	n/a	0	182.45	336.55	0
285.8445232	2.7	forage	4.639	187.1101051	416.6666667	40	54.30478849	0	n/a	n/a	n/a	n/a
296.9103079	1.8	engage	4.42	n/a	n/a	n/a	n/a	n/a	0	78.5	21.45	1
309.3927281	2.7	forage	3.161	-120.7589306	173.3333333	5	253.3654494	0	n/a	n/a	n/a	n/a
317.0420916	1.8	engage	2.648	n/a	n/a	n/a	n/a	n/a	0	204.75	390.1	0
329.9744185	2.7	forage	6.86	89.41244404	328.3333333	40	130.7824808	1	n/a	n/a	n/a	n/a
343.8733488	2.7	forage	4.489	24.87876029	301.6666667	40	182.7523766	0	n/a	n/a	n/a	n/a
352.8727529	1.8	engage	2.194	n/a	n/a	n/a	n/a	n/a	0	190.35	253.8	0
363.1385191	2.7	forage	4.079	-89.35056754	181.6666667	20	212.3894673	0	n/a	n/a	n/a	n/a
373.7377684	1.8	engage	1.992	n/a	n/a	n/a	n/a	n/a	0	329.7	171	1
382.5870965	2.7	forage	2.984	-69.18391932	236.6666667	40	262.0330466	0	n/a	n/a	n/a	n/a
389.9698369	1.8	engage	2.345	n/a	n/a	n/a	n/a	n/a	0	191.1	119.6	1
400.8524251	2.7	forage	6.542	79.7348859	326.6666667	20	132	1	n/a	n/a	n/a	n/a
416.2886177	2.7	forage	4.5	58.70438274	291.6666667	5	151.880338	0	n/a	n/a	n/a	n/a
426.0170793	1.8	engage	1.931	n/a	n/a	n/a	n/a	n/a	0	246	134.1	1
437.9828822	2.7	forage	4.908	241.5189125	476.6666667	20	25.60110155	1	n/a	n/a	n/a	n/a
451.38181	2.7	forage	4.998	-3.31628523	336.6666667	40	255.8408782	0	n/a	n/a	n/a	n/a
460.8977867	1.8	engage	3.69	n/a	n/a	n/a	n/a	n/a	0	136.3	391	1
472.8968248	2.7	forage	4.178	140.4213822	266.6666667	40	60.11712188	1	n/a	n/a	n/a	n/a
486.4791011	2.7	forage	3.283	16.4689972	221.6666667	20	167.3512147	0	n/a	n/a	n/a	n/a
495.1451056	1.8	engage	3.818	n/a	n/a	n/a	n/a	n/a	0	40	158.1	0
508.1773986	2.7	forage	3.224	-122.2271096	176.6666667	5	248.9546049	0	n/a	n/a	n/a	n/a
518.0101086	1.8	engage	3.72	n/a	n/a	n/a	n/a	n/a	0	219.3	350.15	0
529.309198	2.7	forage	7.183	118.9160254	418.3333333	40	137.5	1	n/a	n/a	n/a	n/a
542.4248723	2.7	forage	3.426	-78.36543266	293.3333333	20	286.3217393	0	n/a	n/a	n/a	n/a
551.1574869	1.8	engage	2.951	n/a	n/a	n/a	n/a	n/a	0	193.45	219.3	1
563.3565218	2.7	forage	3.051	-91.57922807	283.3333333	40	283.1663146	0	n/a	n/a	n/a	n/a
570.5560875	1.8	engage	1.488	n/a	n/a	n/a	n/a	n/a	0	128.25	352.45	0
578.9553958	2.7	forage	4.143	-99.39765102	170	20	234.6259997	0	n/a	n/a	n/a	n/a
586.5214665	1.8	engage	2.101	n/a	n/a	n/a	n/a	n/a	0	248.6	176.3	1
596.7206978	2.7	forage	4.907	186.3040139	320	40	30.28610231	1	n/a	n/a	n/a	n/a
612.2194404	2.7	forage	3.608	-94.87507838	233.3333333	5	274.6846235	0	n/a	n/a	n/a	n/a
619.4356656	1.8	engage	1.912	n/a	n/a	n/a	n/a	n/a	0	155	70.8	1
632.5346401	2.7	forage	4.387	173.1104321	278.3333333	40	25.59501534	1	n/a	n/a	n/a	n/a
644.217438	2.7	forage	2.882	-125.9155945	161.6666667	20	259.9097882	0	n/a	n/a	n/a	n/a
652.6998008	1.8	engage	2.304	n/a	n/a	n/a	n/a	n/a	0	346.8	121.8	1
665.5153671	2.7	forage	4.567	-58.46146907	248.3333333	5	233.8500075	0	n/a	n/a	n/a	n/a
674.4314124	1.8	engage	8.98	n/a	n/a	n/a	n/a	n/a	0	307.45	128.1	1
691.196707	2.7	forage	5.831	-102.5115789	208.3333333	5	274.3047885	0	n/a	n/a	n/a	n/a
702.9625429	1.8	engage	3.623	n/a	n/a	n/a	n/a	n/a	0	110.45	335.4	0
718.8779369	2.7	forage	5.26	143.9770954	385	5	88	1	n/a	n/a	n/a	n/a
732.0436491	2.7	forage	2.679	-41.91078752	270	20	241.5689855	0	n/a	n/a	n/a	n/a
739.1598534	1.8	engage	3.284	n/a	n/a	n/a	n/a	n/a	0	335.8	157.85	1
753.4253454	2.7	forage	6.346	109.7363194	276.6666667	40	70.79648911	1	n/a	n/a	n/a	n/a
766.2076981	2.7	forage	3.708	-93.59024194	225	5	241.4065942	0	n/a	n/a	n/a	n/a
774.3238048	1.8	engage	3.239	n/a	n/a	n/a	n/a	n/a	0	167.2	37.4	1
787.7393992	2.7	forage	5.391	103.4918834	318.3333333	40	105.3490267	1	n/a	n/a	n/a	n/a
801.0549739	2.7	forage	3.283	-125.2850628	271.6666667	40	291.0020371	0	n/a	n/a	n/a	n/a
812.9874491	1.8	engage	2.191	n/a	n/a	n/a	n/a	n/a	0	80.6	376.3	0
828.4529565	2.7	forage	6.143	-94.92778868	196.6666667	20	255.1586691	0	n/a	n/a	n/a	n/a
839.0687974	1.8	engage	4.109	n/a	n/a	n/a	n/a	n/a	0	174.9	313.6	0
854.1509238	2.7	forage	4.611	62.18724578	311.6666667	5	148.5	1	n/a	n/a	n/a	n/a
865.9500347	2.7	forage	3.036	-46.37991214	231.6666667	20	222.092274	0	n/a	n/a	n/a	n/a
872.2996567	1.8	engage	2.289	n/a	n/a	n/a	n/a	n/a	0	86.4	223.6	0
882.448779	2.7	forage	2.951	-93.01173818	205	40	246.399502	0	n/a	n/a	n/a	n/a
888.4650218	1.8	engage	4.274	n/a	n/a	n/a	n/a	n/a	0	124.8	171.6	1
900.8474342	2.7	forage	4.051	185.6668612	328.3333333	5	25.32334893	1	n/a	n/a	n/a	n/a
912.5464559	2.7	forage	3.024	-45.81450296	256.6666667	40	236.5	0	n/a	n/a	n/a	n/a
920.8625612	1.8	engage	1.515	n/a	n/a	n/a	n/a	n/a	0	72	234.35	0
931.0950651	2.7	forage	5.332	-27.5098486	200	20	182.0054323	0	n/a	n/a	n/a	n/a
942.7108357	1.8	engage	2.003	n/a	n/a	n/a	n/a	n/a	0	118.4	258.4	0
953.5601213	2.7	forage	4.123	191.0866154	291.6666667	40	20.56254716	1	n/a	n/a	n/a	n/a
964.1591428	2.7	forage	6.195	-35.95173952	216.6666667	20	218.4997485	0	n/a	n/a	n/a	n/a
976.8415903	1.8	engage	4.378	n/a	n/a	n/a	n/a	n/a	0	258	36.3	1
990.3571556	2.7	forage	5.822	164.2954563	336.6666667	20	58.14020925	1	n/a	n/a	n/a	n/a
1004.90609	2.7	forage	2.801	-29.14165451	258.3333333	5	224.3831799	0	n/a	n/a	n/a	n/a
1012.12229	1.8	engage	4.745	n/a	n/a	n/a	n/a	n/a	0	162	365.2	0
1028.839234	2.7	forage	5.086	80.9465218	311.6666667	20	143	1	n/a	n/a	n/a	n/a
1040.720033	2.7	forage	4.403	113.5293396	291.6666667	20	110.8147226	1	n/a	n/a	n/a	n/a
1053.868957	2.7	forage	7.183	80.9433496	311.6666667	20	143	1	n/a	n/a	n/a	n/a
1067.284676	2.7	forage	2.606	-101.2073403	201.6666667	20	259.8937428	0	n/a	n/a	n/a	n/a
1073.250947	1.8	engage	3.088	n/a	n/a	n/a	n/a	n/a	0	360.15	153	1
1087.336097	2.7	forage	6.892	80.57686736	290	40	121.308737	1	n/a	n/a	n/a	n/a
1102.515266	2.7	forage	4.952	-7.446334021	253.3333333	5	192.3182435	1	n/a	n/a	n/a	n/a
1114.714307	2.7	forage	4.296	1.261469074	270	5	189.0939339	0	n/a	n/a	n/a	n/a
1125.196961	1.8	engage	1.375	n/a	n/a	n/a	n/a	n/a	0	151.2	44.25	1
1134.679485	2.7	forage	2.851	-136.8448284	138.3333333	20	247.5190886	0	n/a	n/a	n/a	n/a
1140.845705	1.8	engage	2.301	n/a	n/a	n/a	n/a	n/a	0	234.6	117.6	0
1154.49725	2.7	forage	7.219	-0.391048405	275	40	197.9560133	0	n/a	n/a	n/a	n/a
1165.16046	1.8	engage	4.01	n/a	n/a	n/a	n/a	n/a	0	75.65	336.3	0
1178.192776	2.7	forage	2.707	-111.564083	196.6666667	20	275.3355717	0	n/a	n/a	n/a	n/a
1185.192365	1.8	engage	2.139	n/a	n/a	n/a	n/a	n/a	0	139.65	390.15	0
1198.841162	2.7	forage	4.395	200.4010295	461.6666667	20	58.67385946	1	n/a	n/a	n/a	n/a
1210.690264	2.7	forage	5.528	31.18378184	351.6666667	5	225.2266737	0	n/a	n/a	n/a	n/a
1221.706178	1.8	engage	3.264	n/a	n/a	n/a	n/a	n/a	0	335.4	315.4	1
1235.355107	2.7	forage	3.96	31.01775732	333.3333333	5	202.4335295	1	n/a	n/a	n/a	n/a
1246.787595	2.7	forage	4.44	-28.98619788	313.3333333	40	250.8645692	0	n/a	n/a	n/a	n/a
1255.73689	1.8	engage	3.178	n/a	n/a	n/a	n/a	n/a	0	71.4	232.65	0
1267.335978	2.7	forage	3.901	248.4215817	470	5	15.14858408	1	n/a	n/a	n/a	n/a
1281.284869	2.7	forage	4.83	-29.64562983	316.6666667	40	270.7595694	0	n/a	n/a	n/a	n/a
1292.584057	1.8	engage	3.268	n/a	n/a	n/a	n/a	n/a	0	187.2	400.5	1
1307.932924	2.7	forage	3.389	200.5509532	280	5	15.14305115	1	n/a	n/a	n/a	n/a
1320.698593	2.7	forage	6.096	-102.1011468	190	5	269.5	0	n/a	n/a	n/a	n/a
1331.064517	1.8	engage	3.012	n/a	n/a	n/a	n/a	n/a	0	308.7	50	1
1341.613577	2.7	forage	5.029	103.6441494	348.3333333	20	132	1	n/a	n/a	n/a	n/a
1354.512626	2.7	forage	2.826	9.276292272	280	20	207.0288969	0	n/a	n/a	n/a	n/a
1361.012228	1.8	engage	5.686	n/a	n/a	n/a	n/a	n/a	0	98	149.65	0
1375.677656	2.7	forage	3.989	215.5489311	385	20	15.14305115	1	n/a	n/a	n/a	n/a
1385.843564	2.7	forage	6.76	-67.45711316	250	5	262.511091	0	n/a	n/a	n/a	n/a
1396.826132	1.8	engage	3.272	n/a	n/a	n/a	n/a	n/a	0	296.4	117.3	1
1409.258419	2.7	forage	4.705	-113.0762118	213.3333333	20	270.9133846	0	n/a	n/a	n/a	n/a
1418.524432	1.8	engage	2.885	n/a	n/a	n/a	n/a	n/a	0	190.8	193.2	1
1431.940053	2.7	forage	4.414	203.6642355	466.6666667	40	57.19684624	1	n/a	n/a	n/a	n/a
1444.772398	2.7	forage	4.887	26.64499774	355	40	230.674111	0	n/a	n/a	n/a	n/a
1454.071709	1.8	engage	7.444	n/a	n/a	n/a	n/a	n/a	0	220.35	299.2	0
1469.570449	2.7	forage	3.497	234.7963952	436.6666667	5	15.14305115	1	n/a	n/a	n/a	n/a
1480.552952	2.7	forage	3.809	-20.26411985	296.6666667	20	249.0926513	0	n/a	n/a	n/a	n/a
1489.768998	1.8	engage	1.673	n/a	n/a	n/a	n/a	n/a	0	427.2	336.2	1
1501.634736	2.7	forage	4.698	153.9401522	380	5	71.46846235	1	n/a	n/a	n/a	n/a
1512.217163	2.7	forage	2.346	-69.91994534	270	40	254.5229365	0	n/a	n/a	n/a	n/a
1518.816789	1.8	engage	4.994	n/a	n/a	n/a	n/a	n/a	0	308.7	279.3	0
1532.782275	2.7	forage	4.613	164.9890264	280	5	41.12509431	1	n/a	n/a	n/a	n/a
1546.764593	2.7	forage	2.959	-82.24052445	196.6666667	5	246.5430813	0	n/a	n/a	n/a	n/a
1553.330825	1.8	engage	2.416	n/a	n/a	n/a	n/a	n/a	0	132	195.5	0
1564.863202	2.7	forage	6.021	30.8170414	201.6666667	40	118.4437906	1	n/a	n/a	n/a	n/a
1578.178835	2.7	forage	3.889	89.7576983	241.6666667	20	67.47590664	1	n/a	n/a	n/a	n/a
1590.444517	2.7	forage	3.063	16.42370102	218.3333333	20	135.045043	0	n/a	n/a	n/a	n/a
1596.794114	1.8	engage	1.881	n/a	n/a	n/a	n/a	n/a	0	200	44.4	1
1605.993365	2.7	forage	3.346	-17.52495515	301.6666667	5	233.8508375	0	n/a	n/a	n/a	n/a
1612.792867	1.8	engage	3.155	n/a	n/a	n/a	n/a	n/a	0	270.9	148.35	0
1623.158702	2.7	forage	6.94	12.47522425	201.6666667	40	141.6845481	0	n/a	n/a	n/a	n/a
1634.424538	1.8	engage	2.14	n/a	n/a	n/a	n/a	n/a	0	135.8	68	1
1644.507134	2.7	forage	4.471	58.44815318	366.6666667	40	183.2558724	1	n/a	n/a	n/a	n/a
1655.28958	2.7	forage	2.85	-33.26585685	370	5	258.5	0	n/a	n/a	n/a	n/a
1661.405847	1.8	engage	2.558	n/a	n/a	n/a	n/a	n/a	0	159.8	23.8	1
1673.821495	2.7	forage	3.151	-60.34576061	295	20	259.8959559	0	n/a	n/a	n/a	n/a
1682.037561	1.8	engage	2.533	n/a	n/a	n/a	n/a	n/a	0	238.5	286.65	0
1691.586757	2.7	forage	10.057	33.80057677	193.3333333	40	104.5	0	n/a	n/a	n/a	n/a
1704.86922	1.8	engage	3.005	n/a	n/a	n/a	n/a	n/a	0	59.85	15.4	1
1717.004214	2.7	forage	5.232	189.9288886	383.3333333	40	41.7829586	1	n/a	n/a	n/a	n/a
1728.800613	2.7	forage	4.427	52.66553158	315	20	177.2634425	0	n/a	n/a	n/a	n/a
1738.416636	1.8	engage	3.49	n/a	n/a	n/a	n/a	n/a	0	63	278.25	0
1750.015639	2.7	forage	3.692	157.9625857	380	5	55	1	n/a	n/a	n/a	n/a
1760.664819	2.7	forage	2.738	-21.39012457	268.3333333	5	218.1899049	0	n/a	n/a	n/a	n/a
1767.980956	1.8	engage	5.397	n/a	n/a	n/a	n/a	n/a	0	283.1	287	1
1782.250343	2.7	forage	5.467	215.5551096	411.6666667	20	40.42545647	1	n/a	n/a	n/a	n/a
1796.162096	2.7	forage	1.951	-87.72713479	260	40	286.3233992	0	n/a	n/a	n/a	n/a
1802.578339	1.8	engage	2.802	n/a	n/a	n/a	n/a	n/a	0	369.75	360.4	0
1814.030524	2.7	forage	4.23	143.0029324	303.3333333	5	57.20348574	1	n/a	n/a	n/a	n/a
1826.45977	2.7	forage	5.006	43.52745167	270	5	152.6057039	0	n/a	n/a	n/a	n/a
1836.059134	1.8	engage	4.935	n/a	n/a	n/a	n/a	n/a	0	69.2	194.6	0
1847.891492	2.7	forage	2.391	-89.69762923	188.3333333	40	248.0687843	0	n/a	n/a	n/a	n/a
1854.757724	1.8	engage	2.197	n/a	n/a	n/a	n/a	n/a	0	64.5	209.3	0
1864.956815	2.7	forage	5.605	49.812942	336.6666667	20	167.8879081	1	n/a	n/a	n/a	n/a
1878.605866	2.7	forage	4.63	34.17878879	360	5	180.3829033	1	n/a	n/a	n/a	n/a
1892.371449	2.7	forage	4.001	-64.89782372	290	40	247.0191892	0	n/a	n/a	n/a	n/a
1903.88725	1.8	engage	2.355	n/a	n/a	n/a	n/a	n/a	0	413.6	205.8	1
1913.269853	2.7	forage	3.453	-101.0595191	215	20	277.3628339	0	n/a	n/a	n/a	n/a
1921.235949	1.8	engage	1.782	n/a	n/a	n/a	n/a	n/a	0	255	78.75	1
1933.101643	2.7	forage	3.261	230.9297872	416.6666667	40	15.14858408	1	n/a	n/a	n/a	n/a
1945.004342	2.7	forage	4.392	-12.91053602	283.3333333	40	236.1270811	0	n/a	n/a	n/a	n/a
1954.683336	1.8	engage	2.904	n/a	n/a	n/a	n/a	n/a	0	303.75	136	1
1967.249021	2.7	forage	5.851	-16.44295559	260	5	202.4869222	0	n/a	n/a	n/a	n/a
1979.598085	1.8	engage	2.284	n/a	n/a	n/a	n/a	n/a	0	89.9	206	0