onset	duration	stage	RT	SearchEvidence	SearchValue	SearchCosts	OfferValue	Choice_isForage	ExcludeBlock	ExpValueLeft	ExpValueRight	Choice_isLeft
6.017796694	2.7	forage	7.218	170.838375	346.6666667	5	60.5	1	n/a	n/a	n/a	n/a
21.18155264	2.7	forage	5.22	48.00041245	276.6666667	5	171.9203008	0	n/a	n/a	n/a	n/a
29.83074887	1.8	engage	2.34	n/a	n/a	n/a	n/a	n/a	0	139.65	300.9	0
39.42997402	2.7	forage	4.5	127.7877873	316.6666667	40	96.43078819	1	n/a	n/a	n/a	n/a
53.37888933	2.7	forage	4.702	-69.8725651	228.3333333	5	243.0725567	0	n/a	n/a	n/a	n/a
61.56163627	1.8	engage	4.393	n/a	n/a	n/a	n/a	n/a	0	94.5	237.6	0
75.36055321	2.7	forage	4.577	-112.399886	185	40	231.5364167	0	n/a	n/a	n/a	n/a
85.42650434	1.8	engage	2.08	n/a	n/a	n/a	n/a	n/a	0	222	243	0
97.59223817	2.7	forage	3.379	186.3759419	371.6666667	20	43.90040742	1	n/a	n/a	n/a	n/a
109.5579259	2.7	forage	7.027	4.634153212	265	5	205.252276	0	n/a	n/a	n/a	n/a
124.7568917	1.8	engage	3.334	n/a	n/a	n/a	n/a	n/a	0	218.75	329.55	0
135.4893088	2.7	forage	5.473	82.58065154	350	5	162.392611	1	n/a	n/a	n/a	n/a
148.4216569	2.7	forage	3.453	1.986318596	371.6666667	5	231	0	n/a	n/a	n/a	n/a
159.3708457	1.8	engage	1.983	n/a	n/a	n/a	n/a	n/a	0	176.4	35.8	1
169.3700146	2.7	forage	6.336	147.8436112	431.6666667	5	99	1	n/a	n/a	n/a	n/a
183.9188874	2.7	forage	4.139	55.48204651	348.3333333	20	192.9766611	0	n/a	n/a	n/a	n/a
193.4348483	1.8	engage	3.374	n/a	n/a	n/a	n/a	n/a	0	238	118.8	0
206.6671406	2.7	forage	4.08	231.6219741	451.6666667	20	25.32334893	1	n/a	n/a	n/a	n/a
219.2828929	2.7	forage	4.776	-49.79901749	300	20	276.1840451	0	n/a	n/a	n/a	n/a
227.3656107	1.8	engage	4.741	n/a	n/a	n/a	n/a	n/a	0	392.2	411.7	1
240.3527019	2.7	forage	4.547	147.6629797	313.3333333	20	52.79568432	1	n/a	n/a	n/a	n/a
253.0308439	2.7	forage	4.115	100.9071978	275	20	101.9747749	1	n/a	n/a	n/a	n/a
264.6294514	2.7	forage	3.941	147.6858307	313.3333333	5	52.77244605	1	n/a	n/a	n/a	n/a
278.1452718	2.7	forage	3.218	-56.11208021	231.6666667	20	230.1733816	0	n/a	n/a	n/a	n/a
285.6111597	1.8	engage	2.99	n/a	n/a	n/a	n/a	n/a	0	148.2	356.4	0
297.676847	2.7	forage	4.821	93.84700635	306.6666667	40	126.5	1	n/a	n/a	n/a	n/a
310.2592177	2.7	forage	4.535	75.83615009	303.3333333	5	143	1	n/a	n/a	n/a	n/a
321.8917371	2.7	forage	4.215	-103.024204	258.3333333	5	286	0	n/a	n/a	n/a	n/a
331.4909711	1.8	engage	4.335	n/a	n/a	n/a	n/a	n/a	0	205.4	33.6	1
344.3399941	2.7	forage	3.766	-106.0394615	275	20	288.8317489	0	n/a	n/a	n/a	n/a
351.4894845	1.8	engage	3.914	n/a	n/a	n/a	n/a	n/a	0	182	384.25	0
366.1883032	2.7	forage	5.605	-31.33376088	260	20	213.5629998	0	n/a	n/a	n/a	n/a
375.0043914	1.8	engage	2.742	n/a	n/a	n/a	n/a	n/a	0	86.4	132.3	0
387.71997	2.7	forage	6.362	-59.13716782	290	40	255.1943564	0	n/a	n/a	n/a	n/a
399.4524405	1.8	engage	2.061	n/a	n/a	n/a	n/a	n/a	0	235.2	128.7	1
408.3684033	2.7	forage	6.481	-104.358929	206.6666667	40	227.0907148	0	n/a	n/a	n/a	n/a
418.950923	1.8	engage	3.45	n/a	n/a	n/a	n/a	n/a	0	249.6	232.2	0
432.1498747	2.7	forage	3.525	-88.42398773	236.6666667	20	256.5562849	0	n/a	n/a	n/a	n/a
441.9659209	1.8	engage	6.259	n/a	n/a	n/a	n/a	n/a	0	252.35	93.45	1
458.1189419	2.7	forage	6.974	31.25298023	270	40	177.8225441	1	n/a	n/a	n/a	n/a
473.246727	2.7	forage	4.412	122.5522241	315	20	98.31696092	1	n/a	n/a	n/a	n/a
486.062435	2.7	forage	3.315	-47.0864477	251.6666667	40	240.4341834	0	n/a	n/a	n/a	n/a
494.8618478	1.8	engage	1.988	n/a	n/a	n/a	n/a	n/a	0	167.9	145	1
506.7774748	2.7	forage	6.545	36.36137854	240	40	137.5	1	n/a	n/a	n/a	n/a
520.7597969	2.7	forage	7.468	92.81640763	251.6666667	40	86.60321412	0	n/a	n/a	n/a	n/a
532.6922817	1.8	engage	2.414	n/a	n/a	n/a	n/a	n/a	0	36	38.25	1
543.1246987	2.7	forage	5.198	-160.2026256	156.6666667	20	284.7221719	0	n/a	n/a	n/a	n/a
552.8240069	1.8	engage	7.083	n/a	n/a	n/a	n/a	n/a	0	161.1	219.95	0
569.7393478	2.7	forage	3.63	156.1814463	338.3333333	20	92.86592727	1	n/a	n/a	n/a	n/a
585.5715297	2.7	forage	2.55	-76.65415556	296.6666667	5	291.5	0	n/a	n/a	n/a	n/a
592.6876677	1.8	engage	3.354	n/a	n/a	n/a	n/a	n/a	0	27	140.45	0
605.9866079	2.7	forage	4.52	115.0401036	320	20	103.6650822	1	n/a	n/a	n/a	n/a
617.9690236	2.7	forage	4.816	15.71303422	270	40	185.350083	0	n/a	n/a	n/a	n/a
627.2683721	1.8	engage	3.654	n/a	n/a	n/a	n/a	n/a	0	189	91.2	1
642.0171883	2.7	forage	6.45	-132.5277669	176.6666667	5	259.43949	0	n/a	n/a	n/a	n/a
652.7163975	1.8	engage	5.854	n/a	n/a	n/a	n/a	n/a	0	122.85	418.2	0
665.6320009	2.7	forage	3.387	-122.4396845	191.6666667	5	266.4272924	0	n/a	n/a	n/a	n/a
673.5314286	1.8	engage	6.799	n/a	n/a	n/a	n/a	n/a	0	122.85	226.2	0
691.3134356	2.7	forage	3.301	-77.02996999	276.6666667	5	275	0	n/a	n/a	n/a	n/a
699.0462374	1.8	engage	3.132	n/a	n/a	n/a	n/a	n/a	0	132.5	15.9	1
711.2951503	2.7	forage	4.132	-39.99818587	376.6666667	40	269.0393843	0	n/a	n/a	n/a	n/a
718.9613347	1.8	engage	1.953	n/a	n/a	n/a	n/a	n/a	0	220.5	62.4	1
729.7959654	2.7	forage	2.617	-59.6096977	306.6666667	5	266.8381118	0	n/a	n/a	n/a	n/a
736.6433088	1.8	engage	1.64	n/a	n/a	n/a	n/a	n/a	0	428.75	151.2	1
747.3757955	2.7	forage	3.812	-32.20645004	235	20	221.3727177	0	n/a	n/a	n/a	n/a
755.8084891	1.8	engage	2.786	n/a	n/a	n/a	n/a	n/a	0	86.1	135.15	1
766.8576028	2.7	forage	6.041	153.9909629	321.6666667	20	77.74611438	1	n/a	n/a	n/a	n/a
779.3066173	2.7	forage	2.409	-60.52690844	226.6666667	20	242.3662794	0	n/a	n/a	n/a	n/a
785.2562717	1.8	engage	3.45	n/a	n/a	n/a	n/a	n/a	0	280.8	145.7	1
796.6053159	2.7	forage	3.366	177.4801854	293.3333333	40	35.40488406	0	n/a	n/a	n/a	n/a
803.3382091	1.8	engage	3.799	n/a	n/a	n/a	n/a	n/a	0	12.25	19.25	0
816.3038119	2.7	forage	3.418	0.459250876	300	20	209	1	n/a	n/a	n/a	n/a
826.0530988	2.7	forage	5.269	19.0951981	271.6666667	40	186.8049645	0	n/a	n/a	n/a	n/a
835.4857436	1.8	engage	2.548	n/a	n/a	n/a	n/a	n/a	0	222.5	255.3	0
847.6866115	2.7	forage	4.34	-107.8562882	191.6666667	5	247.3865751	0	n/a	n/a	n/a	n/a
859.1672134	1.8	engage	6.291	n/a	n/a	n/a	n/a	n/a	0	394.45	129.6	1
875.5826483	2.7	forage	4.435	-127.6447429	168.3333333	5	251.9653438	0	n/a	n/a	n/a	n/a
887.1317934	1.8	engage	2.903	n/a	n/a	n/a	n/a	n/a	0	250.7	87.6	1
898.3474768	2.7	forage	5.942	-131.7200711	181.6666667	40	264.6871888	0	n/a	n/a	n/a	n/a
910.6799064	1.8	engage	3.012	n/a	n/a	n/a	n/a	n/a	0	195	296	1
920.7124897	2.7	forage	3.13	120.4177892	295	20	97.21480308	1	n/a	n/a	n/a	n/a
932.3315134	2.7	forage	3.929	-61.03839009	208.3333333	5	227.4799557	0	n/a	n/a	n/a	n/a
941.4442142	1.8	engage	2.311	n/a	n/a	n/a	n/a	n/a	0	310.2	192.4	1
953.5932815	2.7	forage	5.913	-22.87670976	205	5	176	0	n/a	n/a	n/a	n/a
963.0425772	1.8	engage	2.479	n/a	n/a	n/a	n/a	n/a	0	28.5	260.8	0
973.4417377	2.7	forage	5.018	-9.027901011	356.6666667	40	257.3499824	0	n/a	n/a	n/a	n/a
982.6911192	1.8	engage	4.399	n/a	n/a	n/a	n/a	n/a	0	100	167.5	0
995.1734489	2.7	forage	3.74	-125.4273695	193.3333333	20	254.5229365	0	n/a	n/a	n/a	n/a
1003.439577	1.8	engage	4.044	n/a	n/a	n/a	n/a	n/a	0	354.9	225.4	0
1018.889749	2.7	forage	3.609	146.9989739	291.6666667	20	43.90040742	1	n/a	n/a	n/a	n/a
1028.437606	2.7	forage	6.252	-87.74463726	180	20	227.5399879	0	n/a	n/a	n/a	n/a
1039.103493	1.8	engage	5.156	n/a	n/a	n/a	n/a	n/a	0	188.8	168.75	0
1054.118937	2.7	forage	3.02	26.76692487	343.3333333	5	218.5805291	0	n/a	n/a	n/a	n/a
1060.468521	1.8	engage	3.958	n/a	n/a	n/a	n/a	n/a	0	299.3	97.5	1
1075.183936	2.7	forage	4.612	-19.20788525	306.6666667	40	225.7523012	0	n/a	n/a	n/a	n/a
1084.283304	1.8	engage	3.382	n/a	n/a	n/a	n/a	n/a	0	328.95	144	1
1094.43252	2.7	forage	4.435	69.45340945	355	40	152.4596348	1	n/a	n/a	n/a	n/a
1105.548275	2.7	forage	6.807	113.4796908	355	40	112.9554097	1	n/a	n/a	n/a	n/a
1121.497126	2.7	forage	2.737	1.817785826	338.3333333	20	211.3628339	0	n/a	n/a	n/a	n/a
1128.46326	1.8	engage	2.812	n/a	n/a	n/a	n/a	n/a	0	187.2	97.8	1
1142.378786	2.7	forage	6.591	136.8193401	308.3333333	5	88.03983703	1	n/a	n/a	n/a	n/a
1157.027843	2.7	forage	2.214	-80.05232802	205	5	243.6875409	0	n/a	n/a	n/a	n/a
1164.677187	1.8	engage	4.293	n/a	n/a	n/a	n/a	n/a	0	180	232.65	0
1178.159461	2.7	forage	3.97	204.624769	433.3333333	20	41.78074544	1	n/a	n/a	n/a	n/a
1188.675329	2.7	forage	5.374	-26.58830374	306.6666667	40	251.067904	0	n/a	n/a	n/a	n/a
1199.191186	1.8	engage	3.364	n/a	n/a	n/a	n/a	n/a	0	376.2	204.45	0
1212.424214	2.7	forage	4.043	-10.68117466	316.6666667	20	221.6579397	0	n/a	n/a	n/a	n/a
1223.789351	1.8	engage	3.86	n/a	n/a	n/a	n/a	n/a	0	188.6	91.65	1
1236.454991	2.7	forage	4.356	180.6009004	400	40	50.53410291	1	n/a	n/a	n/a	n/a
1247.604139	2.7	forage	3.301	-73.53456567	268.3333333	5	264.3505105	0	n/a	n/a	n/a	n/a
1259.303244	1.8	engage	2.891	n/a	n/a	n/a	n/a	n/a	0	110.45	347.9	0
1273.203966	2.7	forage	2.504	214.4077847	430	20	38.15142598	1	n/a	n/a	n/a	n/a
1283.768526	2.7	forage	8.267	-33.69473199	291.6666667	20	258.4388612	0	n/a	n/a	n/a	n/a
1296.283732	1.8	engage	2.174	n/a	n/a	n/a	n/a	n/a	0	430	342.3	1
1308.416142	2.7	forage	4.634	-63.10274131	275	5	240.4341834	0	n/a	n/a	n/a	n/a
1320.331937	1.8	engage	4.447	n/a	n/a	n/a	n/a	n/a	0	315.1	178	1
1332.397649	2.7	forage	4.517	11.38249082	328.3333333	20	198	1	n/a	n/a	n/a	n/a
1344.413737	2.7	forage	4.181	-53.03736231	271.6666667	20	244.1138524	0	n/a	n/a	n/a	n/a
1353.929346	1.8	engage	2.032	n/a	n/a	n/a	n/a	n/a	0	98.55	410.4	0
1362.628591	2.7	forage	4.725	237.5051104	458.3333333	5	20.58799859	1	n/a	n/a	n/a	n/a
1373.611103	2.7	forage	2.56	-26.01409721	310	40	262.0330466	0	n/a	n/a	n/a	n/a
1382.760448	1.8	engage	2.937	n/a	n/a	n/a	n/a	n/a	0	289.1	411.7	1
1395.159451	2.7	forage	4.051	183.6046124	356.6666667	5	38.15142598	1	n/a	n/a	n/a	n/a
1407.175176	2.7	forage	3.178	-38.55363245	246.6666667	5	232.4197475	0	n/a	n/a	n/a	n/a
1416.807828	1.8	engage	2.059	n/a	n/a	n/a	n/a	n/a	0	131.95	131.1	0
1429.14019	2.7	forage	6.206	232.8755864	461.6666667	40	26.38622303	1	n/a	n/a	n/a	n/a
1444.739095	2.7	forage	4.031	-57.24559127	301.6666667	40	283.9774408	0	n/a	n/a	n/a	n/a
1453.138419	1.8	engage	3.287	n/a	n/a	n/a	n/a	n/a	0	347.5	394.85	0
1465.391622	2.7	forage	2.997	-126.1154436	158.3333333	40	260.2937729	0	n/a	n/a	n/a	n/a
1472.570227	1.8	engage	2.505	n/a	n/a	n/a	n/a	n/a	0	130	385.05	0
1482.019488	2.7	forage	3.639	77.44484684	306.6666667	40	130.6032141	1	n/a	n/a	n/a	n/a
1492.118706	2.7	forage	4.012	41.50009725	265	5	158.9256828	0	n/a	n/a	n/a	n/a
1499.66817	1.8	engage	2.726	n/a	n/a	n/a	n/a	n/a	0	161.25	91.45	0
1509.784	2.7	forage	7.114	235.710526	420	5	15.14305115	1	n/a	n/a	n/a	n/a
1523.299711	2.7	forage	3.686	-25.56487937	288.3333333	40	252.4610935	0	n/a	n/a	n/a	n/a
1534.49885	1.8	engage	8.799	n/a	n/a	n/a	n/a	n/a	0	209.1	442.5	0
1551.214237	2.7	forage	4.805	39.79363379	235	5	118.4529199	1	n/a	n/a	n/a	n/a
1563.629922	2.7	forage	7.205	-62.85433161	216.6666667	20	200.874629	0	n/a	n/a	n/a	n/a
1576.195663	1.8	engage	3.015	n/a	n/a	n/a	n/a	n/a	0	81	95	0
1588.932548	2.7	forage	2.935	0.148522039	283.3333333	5	217.6410392	0	n/a	n/a	n/a	n/a
1596.394118	1.8	engage	4.096	n/a	n/a	n/a	n/a	n/a	0	236.5	219.7	1
1609.309694	2.7	forage	7.844	45.63396375	335	5	170.1295709	0	n/a	n/a	n/a	n/a
1620.675564	1.8	engage	4.479	n/a	n/a	n/a	n/a	n/a	0	232	72	1
1635.1411	2.7	forage	2.03	154.4332093	258.3333333	20	20.30581963	1	n/a	n/a	n/a	n/a
1645.191031	2.7	forage	6.163	75.55646094	213.3333333	40	97.06375434	0	n/a	n/a	n/a	n/a
1656.822761	1.8	engage	2.706	n/a	n/a	n/a	n/a	n/a	0	58.9	90	1
1668.721884	2.7	forage	2.568	146.9143202	321.6666667	5	66.17179719	1	n/a	n/a	n/a	n/a
1680.73786	2.7	forage	3.889	27.44786144	270	5	172.3560183	0	n/a	n/a	n/a	n/a
1689.103684	1.8	engage	11.307	n/a	n/a	n/a	n/a	n/a	0	149.6	63	1
1709.685742	2.7	forage	3.469	-31.96820247	261.6666667	40	227.2287611	0	n/a	n/a	n/a	n/a
1718.551445	1.8	engage	1.988	n/a	n/a	n/a	n/a	n/a	0	201	200.25	0
1731.467007	2.7	forage	8.632	-7.620178395	270	20	192.1464464	0	n/a	n/a	n/a	n/a
1744.566063	1.8	engage	3.988	n/a	n/a	n/a	n/a	n/a	0	125.8	79.9	1
1755.648556	2.7	forage	2.346	212.0524202	445	40	49.5	1	n/a	n/a	n/a	n/a
1767.264256	2.7	forage	2.817	-18.41289674	323.3333333	20	262.9443187	0	n/a	n/a	n/a	n/a
1774.313847	1.8	engage	10.016	n/a	n/a	n/a	n/a	n/a	0	353.6	121.6	1
1793.045693	2.7	forage	4.998	-51.36398572	278.3333333	5	248.3199789	0	n/a	n/a	n/a	n/a
1802.528272	1.8	engage	13.626	n/a	n/a	n/a	n/a	n/a	0	311.15	172.55	1
1822.993399	2.7	forage	11.305	67.78630351	201.6666667	40	82.5	0	n/a	n/a	n/a	n/a
1838.658934	1.8	engage	3.447	n/a	n/a	n/a	n/a	n/a	0	15.3	87	0
1851.541144	2.7	forage	3.053	-45.81269554	345	5	275	0	n/a	n/a	n/a	n/a
1859.107312	1.8	engage	32.671	n/a	n/a	n/a	n/a	n/a	0	18.2	392.5	0
1900.188238	2.7	forage	2.214	-35.1193669	366.6666667	40	281.8469896	0	n/a	n/a	n/a	n/a
1907.553589	1.8	engage	3.664	n/a	n/a	n/a	n/a	n/a	0	83.2	158.6	0
1920.45255	2.7	forage	2.895	-124.8725282	183.3333333	20	270.2004678	0	n/a	n/a	n/a	n/a
1926.835514	1.8	engage	2.574	n/a	n/a	n/a	n/a	n/a	0	243.6	333.9	0
1942.285264	2.7	forage	2.702	217.4336838	403.3333333	20	25.59501534	1	n/a	n/a	n/a	n/a
1953.350028	2.7	forage	3.061	-87.42498198	250	20	277.8350687	0	n/a	n/a	n/a	n/a
1959.766244	1.8	engage	2.189	n/a	n/a	n/a	n/a	n/a	0	437.5	119.85	1
1969.982082	2.7	forage	4.117	159.4803766	323.3333333	5	65.85061114	1	n/a	n/a	n/a	n/a
1981.098018	2.7	forage	8.906	68.28539141	266.6666667	40	146.4583522	1	n/a	n/a	n/a	n/a
1995.930208	2.7	forage	3.101	0.768578039	273.3333333	5	209	0	n/a	n/a	n/a	n/a
2004.162859	1.8	engage	2.447	n/a	n/a	n/a	n/a	n/a	0	24.5	214.7	0