onset	duration	stage	RT	SearchEvidence	SearchValue	SearchCosts	OfferValue	Choice_isForage	ExcludeBlock	ExpValueLeft	ExpValueRight	Choice_isLeft
6.017709594	2.7	forage	3.829	226.0912664	476.6666667	20	38.15142598	1	n/a	n/a	n/a	n/a
17.79841612	2.7	forage	2.567	2.698682159	340	40	251.067904	0	n/a	n/a	n/a	n/a
24.714705	1.8	engage	3.372	n/a	n/a	n/a	n/a	n/a	0	204.45	281.6	0
38.21352684	2.7	forage	2.057	240.1669433	470	5	25.32334893	1	n/a	n/a	n/a	n/a
47.84617411	2.7	forage	5.337	8.7540952	343.3333333	40	247.8341884	0	n/a	n/a	n/a	n/a
57.61218862	1.8	engage	4.186	n/a	n/a	n/a	n/a	n/a	0	278.25	237.65	1
72.02764818	2.7	forage	4.386	-75.00431233	283.3333333	20	267.5579448	0	n/a	n/a	n/a	n/a
79.79375322	1.8	engage	2.276	n/a	n/a	n/a	n/a	n/a	0	253.75	241.15	1
93.64267899	2.7	forage	4.089	201.668179	446.6666667	20	55.56574116	1	n/a	n/a	n/a	n/a
107.458289	2.7	forage	2.522	-20.302297	338.3333333	40	263.4065942	0	n/a	n/a	n/a	n/a
114.2078353	1.8	engage	5.175	n/a	n/a	n/a	n/a	n/a	0	238.7	267.8	1
130.173207	2.7	forage	8.262	91.87020438	251.6666667	20	87.49871737	0	n/a	n/a	n/a	n/a
142.6722628	1.8	engage	4.548	n/a	n/a	n/a	n/a	n/a	0	43.4	125.8	0
156.054521	2.7	forage	8.39	26.32635682	238.3333333	5	151.5555556	0	n/a	n/a	n/a	n/a
169.8868645	1.8	engage	1.311	n/a	n/a	n/a	n/a	n/a	0	53.2	204	0
181.43597	2.7	forage	4.016	-60.66633804	231.6666667	40	233.2848197	0	n/a	n/a	n/a	n/a
188.6521253	1.8	engage	2.416	n/a	n/a	n/a	n/a	n/a	0	126	148.5	1
201.0843689	2.7	forage	5.233	108.6302701	318.3333333	40	104.5	1	n/a	n/a	n/a	n/a
213.7167639	2.7	forage	2.919	-96.10233556	235	20	269.7971179	0	n/a	n/a	n/a	n/a
220.9495855	1.8	engage	1.416	n/a	n/a	n/a	n/a	n/a	0	265.2	60	1
231.2487544	2.7	forage	2.892	-51.63271968	291.6666667	40	272.3358986	0	n/a	n/a	n/a	n/a
238.3316348	1.8	engage	2.362	n/a	n/a	n/a	n/a	n/a	0	110	129.85	0
247.5642138	2.7	forage	5.696	30.72764784	251.6666667	20	145.4339319	0	n/a	n/a	n/a	n/a
259.6466047	1.8	engage	2.614	n/a	n/a	n/a	n/a	n/a	0	141.4	136.8	1
271.5623562	2.7	forage	3.532	169.6430981	310	40	46.92580856	1	n/a	n/a	n/a	n/a
287.5444817	2.7	forage	2.355	-83.94818671	190	40	238.2785574	0	n/a	n/a	n/a	n/a
295.2105574	1.8	engage	4.371	n/a	n/a	n/a	n/a	n/a	0	216.2	150.15	1
312.1425215	2.7	forage	4.848	119.9077092	266.6666667	20	65.65944872	1	n/a	n/a	n/a	n/a
324.5416683	2.7	forage	5.305	-6.484491055	208.3333333	40	167.0690358	0	n/a	n/a	n/a	n/a
335.0908157	1.8	engage	2.322	n/a	n/a	n/a	n/a	n/a	0	97.35	109.2	0
346.6232311	2.7	forage	3.461	-109.8759335	178.3333333	5	263.8370555	0	n/a	n/a	n/a	n/a
353.2061008	1.8	engage	2.798	n/a	n/a	n/a	n/a	n/a	0	225.75	135.15	1
368.1049678	2.7	forage	2.611	-85.37501635	258.3333333	20	277.8342387	0	n/a	n/a	n/a	n/a
375.0544682	1.8	engage	2.052	n/a	n/a	n/a	n/a	n/a	0	336.6	122.5	1
385.6203048	2.7	forage	4.319	-108.3323223	216.6666667	40	268.0998944	0	n/a	n/a	n/a	n/a
394.9862739	1.8	engage	1.178	n/a	n/a	n/a	n/a	n/a	0	121.6	140.45	0
408.3685026	2.7	forage	2.278	-63.05523196	238.3333333	40	255.8417082	0	n/a	n/a	n/a	n/a
416.9679071	1.8	engage	4.383	n/a	n/a	n/a	n/a	n/a	0	257.6	314.9	0
431.950028	2.7	forage	5.936	-160.0844424	183.3333333	40	269.5	0	n/a	n/a	n/a	n/a
446.1822941	1.8	engage	7.382	n/a	n/a	n/a	n/a	n/a	0	59.85	240.1	0
462.8142936	2.7	forage	4.052	-58.27849538	285	40	265.4548815	0	n/a	n/a	n/a	n/a
470.4304844	1.8	engage	4.783	n/a	n/a	n/a	n/a	n/a	0	144.4	200	1
487.2291063	2.7	forage	4	134.5167597	245	40	65.74714552	0	n/a	n/a	n/a	n/a
495.6952648	1.8	engage	2.51	n/a	n/a	n/a	n/a	n/a	0	71.6	45.5	1
509.3277397	2.7	forage	4.839	147.8618698	290	20	63.6050752	1	n/a	n/a	n/a	n/a
520.1265678	2.7	forage	4.247	-92.98547524	233.3333333	20	264	0	n/a	n/a	n/a	n/a
528.8426648	1.8	engage	3.852	n/a	n/a	n/a	n/a	n/a	0	69.3	144	1
540.5083563	2.7	forage	4.025	240.8309491	476.6666667	5	25.32334893	1	n/a	n/a	n/a	n/a
550.724233	2.7	forage	2.152	-17.63048639	336.6666667	20	268.579322	0	n/a	n/a	n/a	n/a
557.0237967	1.8	engage	2.372	n/a	n/a	n/a	n/a	n/a	0	143.1	232.05	0
566.4564135	2.7	forage	4.685	-109.7300857	196.6666667	20	250.6493386	0	n/a	n/a	n/a	n/a
576.3390313	1.8	engage	5.516	n/a	n/a	n/a	n/a	n/a	0	298.35	276.85	1
591.2211147	2.7	forage	6.336	27.93265597	243.3333333	40	161.4423319	0	n/a	n/a	n/a	n/a
603.0369352	1.8	engage	4.512	n/a	n/a	n/a	n/a	n/a	0	105	71.5	0
614.5026633	2.7	forage	5.685	93.39072481	285	40	115.3893416	1	n/a	n/a	n/a	n/a
628.6535797	2.7	forage	2.002	-68.72511108	206.6666667	20	233.2364066	0	n/a	n/a	n/a	n/a
635.1678546	1.8	engage	2.252	n/a	n/a	n/a	n/a	n/a	0	121.5	266.8	0
645.2837352	2.7	forage	4.336	186.255066	341.6666667	40	47.22541623	1	n/a	n/a	n/a	n/a
656.4828567	2.7	forage	4.393	-79.90223832	260	20	277.3927116	0	n/a	n/a	n/a	n/a
664.9989105	1.8	engage	1.237	n/a	n/a	n/a	n/a	n/a	0	50.25	438.6	0
675.5979762	2.7	forage	2.741	35.90675687	296.6666667	40	157.9358433	0	n/a	n/a	n/a	n/a
682.66417	1.8	engage	1.653	n/a	n/a	n/a	n/a	n/a	0	208.8	68.2	1
696.1131297	2.7	forage	8.979	113.6731955	290	20	93.5	1	n/a	n/a	n/a	n/a
712.5953443	2.7	forage	5.852	-109.3811981	203.3333333	20	268.2833107	0	n/a	n/a	n/a	n/a
725.6609451	1.8	engage	4.92	n/a	n/a	n/a	n/a	n/a	0	349.35	69.3	1
740.6430092	2.7	forage	4.683	204.432039	366.6666667	20	35.56450883	1	n/a	n/a	n/a	n/a
751.8922318	2.7	forage	3.616	1.372533239	300	40	225.1483829	0	n/a	n/a	n/a	n/a
761.008183	1.8	engage	2.352	n/a	n/a	n/a	n/a	n/a	0	139.4	59.5	0
771.5573466	2.7	forage	4.377	18.78201633	306.6666667	40	188.9016649	0	n/a	n/a	n/a	n/a
780.2233764	1.8	engage	4.351	n/a	n/a	n/a	n/a	n/a	0	148.8	295.2	0
792.6724094	2.7	forage	3.181	-141.6629512	168.3333333	20	255.8408782	0	n/a	n/a	n/a	n/a
800.1218383	1.8	engage	5.076	n/a	n/a	n/a	n/a	n/a	0	119.85	117.3	0
813.5040988	2.7	forage	3.286	-50.49111212	290	40	267.8965595	0	n/a	n/a	n/a	n/a
821.2537197	1.8	engage	2.168	n/a	n/a	n/a	n/a	n/a	0	257.4	445.2	0
833.0026161	2.7	forage	4.939	59.1121959	206.6666667	5	111.0830693	0	n/a	n/a	n/a	n/a
842.0853644	1.8	engage	2.089	n/a	n/a	n/a	n/a	n/a	0	135	88	1
857.5677785	2.7	forage	2.152	140.7702513	291.6666667	5	51.40636789	1	n/a	n/a	n/a	n/a
869.5498003	2.7	forage	5.959	-27.66521302	241.6666667	20	203.5	0	n/a	n/a	n/a	n/a
878.7657743	1.8	engage	2.552	n/a	n/a	n/a	n/a	n/a	0	44.8	314.5	0
888.0650579	2.7	forage	4.412	216.2473517	451.6666667	20	35.55703938	1	n/a	n/a	n/a	n/a
899.1354646	2.7	forage	8.182	8.124467247	328.3333333	40	234.6259997	0	n/a	n/a	n/a	n/a
911.5632762	1.8	engage	4.433	n/a	n/a	n/a	n/a	n/a	0	220	258.3	0
924.6788876	2.7	forage	2.751	157.1943581	338.3333333	20	41.17599718	1	n/a	n/a	n/a	n/a
933.4615601	2.7	forage	4.12	-23.32115085	241.6666667	20	203.0222323	0	n/a	n/a	n/a	n/a
940.7277412	1.8	engage	2.004	n/a	n/a	n/a	n/a	n/a	0	192	126	1
951.7281203	2.7	forage	6.734	11.23874554	323.3333333	5	198	1	n/a	n/a	n/a	n/a
965.8257581	2.7	forage	4.954	-33.79504384	295	5	234.7496605	1	n/a	n/a	n/a	n/a
977.9945607	2.7	forage	3.605	-13.5077595	270	5	207.2322318	0	n/a	n/a	n/a	n/a
986.224303	1.8	engage	4.494	n/a	n/a	n/a	n/a	n/a	0	150.15	165.6	0
1003.806192	2.7	forage	3.687	-44.74742384	273.3333333	40	222.092274	0	n/a	n/a	n/a	n/a
1013.838824	1.8	engage	1.807	n/a	n/a	n/a	n/a	n/a	0	122.4	223.6	0
1022.671389	2.7	forage	2.348	190.5355733	376.6666667	5	30.95973543	1	n/a	n/a	n/a	n/a
1031.15416	2.7	forage	4.178	0.860959375	271.6666667	40	205.252276	0	n/a	n/a	n/a	n/a
1041.52008	1.8	engage	1.98	n/a	n/a	n/a	n/a	n/a	0	269.5	335.4	0
1052.486216	2.7	forage	6.992	28.34495079	265	5	153.651426	1	n/a	n/a	n/a	n/a
1067.001366	2.7	forage	2.645	-96.98548195	195	5	237.3836075	0	n/a	n/a	n/a	n/a
1073.06766	1.8	engage	1.642	n/a	n/a	n/a	n/a	n/a	0	220.5	277.3	0
1085.483818	2.7	forage	7.97	-52.43842362	235	20	197.297319	0	n/a	n/a	n/a	n/a
1097.815711	1.8	engage	2.029	n/a	n/a	n/a	n/a	n/a	0	298.35	137.2	1
1108.498236	2.7	forage	5.522	104.5272589	293.3333333	5	95.99479402	1	n/a	n/a	n/a	n/a
1123.497014	2.7	forage	3.756	-29.14456852	248.3333333	40	208.2414365	0	n/a	n/a	n/a	n/a
1132.513047	1.8	engage	1.844	n/a	n/a	n/a	n/a	n/a	0	99	316	0
1141.662316	2.7	forage	5.079	68.25887028	368.3333333	5	162.7168402	1	n/a	n/a	n/a	n/a
1157.261387	2.7	forage	10.04	-0.743790554	335	5	221.753106	1	n/a	n/a	n/a	n/a
1173.226548	2.7	forage	5.668	-43.88731284	341.6666667	20	256.6564308	0	n/a	n/a	n/a	n/a
1183.342466	1.8	engage	2.872	n/a	n/a	n/a	n/a	n/a	0	277.3	102.05	1
1196.709866	2.7	forage	2.321	222.4465654	441.6666667	20	32.28846637	1	n/a	n/a	n/a	n/a
1206.224188	2.7	forage	4.26	-73.44526432	281.6666667	40	286.3233992	0	n/a	n/a	n/a	n/a
1214.590075	1.8	engage	0.802	n/a	n/a	n/a	n/a	n/a	0	173.4	378.95	0
1224.005983	2.7	forage	5.518	27.13556494	286.6666667	5	159.5	1	n/a	n/a	n/a	n/a
1235.938365	2.7	forage	3.66	-12.34673139	230	5	182.0032192	0	n/a	n/a	n/a	n/a
1246.970902	1.8	engage	3.188	n/a	n/a	n/a	n/a	n/a	0	95.2	134.4	0
1258.120052	2.7	forage	3.54	249.9778448	466.6666667	40	15.14305115	1	n/a	n/a	n/a	n/a
1270.052514	2.7	forage	2.153	-30.42156665	315	20	272.0047533	0	n/a	n/a	n/a	n/a
1275.702127	1.8	engage	1.968	n/a	n/a	n/a	n/a	n/a	0	234.35	453.15	0
1287.817723	2.7	forage	3.866	241.4465235	468.3333333	5	20.30581963	1	n/a	n/a	n/a	n/a
1300.016805	2.7	forage	4.179	27.99008769	341.6666667	40	228.3536039	0	n/a	n/a	n/a	n/a
1312.549219	1.8	engage	3.983	n/a	n/a	n/a	n/a	n/a	0	196.8	371.7	0
1326.131454	2.7	forage	5.618	19.36988917	271.6666667	20	161.7449826	1	n/a	n/a	n/a	n/a
1340.631686	2.7	forage	2.542	1.720553963	276.6666667	40	177.4020422	0	n/a	n/a	n/a	n/a
1346.329959	1.8	engage	4.506	n/a	n/a	n/a	n/a	n/a	0	154.7	35.25	1
1357.512398	2.7	forage	3.501	32.64947102	266.6666667	20	174.4206277	0	n/a	n/a	n/a	n/a
1366.4285	1.8	engage	4.13	n/a	n/a	n/a	n/a	n/a	0	115.5	132	0
1381.310571	2.7	forage	2.373	204.4695891	443.3333333	5	43.89210804	1	n/a	n/a	n/a	n/a
1390.109943	2.7	forage	4.416	-3.452505743	316.6666667	20	239.8338615	0	n/a	n/a	n/a	n/a
1397.809437	1.8	engage	2.515	n/a	n/a	n/a	n/a	n/a	0	301.3	260	1
1409.825031	2.7	forage	3.38	5.870318394	336.6666667	40	214.5	0	n/a	n/a	n/a	n/a
1417.607857	1.8	engage	1.677	n/a	n/a	n/a	n/a	n/a	0	234	37.1	1
1429.690244	2.7	forage	2.268	191.8897004	396.6666667	5	43.89210804	1	n/a	n/a	n/a	n/a
1438.139599	2.7	forage	4.867	60.11618128	308.3333333	40	174.4156481	0	n/a	n/a	n/a	n/a
1449.205405	1.8	engage	3.063	n/a	n/a	n/a	n/a	n/a	0	191.4	187.5	1
1460.405223	2.7	forage	4.319	-13.28092819	241.6666667	5	192.5	1	n/a	n/a	n/a	n/a
1472.370388	2.7	forage	1.902	-82.7625371	173.3333333	40	222.088401	0	n/a	n/a	n/a	n/a
1477.636598	1.8	engage	2.127	n/a	n/a	n/a	n/a	n/a	0	129	228.6	0
1488.785699	2.7	forage	7.164	113.697983	286.6666667	20	99	1	n/a	n/a	n/a	n/a
1503.368354	2.7	forage	3.742	-45.78932817	195	40	212.7388713	0	n/a	n/a	n/a	n/a
1512.251073	1.8	engage	3.275	n/a	n/a	n/a	n/a	n/a	0	288.75	291.1	0
1526.466109	2.7	forage	7.067	-6.282465671	310	40	196.5263065	1	n/a	n/a	n/a	n/a
1543.381578	2.7	forage	3.232	3.562869071	285	40	183.4514612	0	n/a	n/a	n/a	n/a
1550.980959	1.8	engage	2.833	n/a	n/a	n/a	n/a	n/a	0	77.5	112	0
1561.697816	2.7	forage	2.955	-29.68220244	291.6666667	5	200.8657764	0	n/a	n/a	n/a	n/a
1568.046323	1.8	engage	2.055	n/a	n/a	n/a	n/a	n/a	0	194.25	257.4	0
1578.29551	2.7	forage	6.598	67.94876851	255	20	105.5448921	1	n/a	n/a	n/a	n/a
1594.578286	2.7	forage	6.085	-108.6129705	206.6666667	5	246.212766	0	n/a	n/a	n/a	n/a
1604.810246	1.8	engage	4.42	n/a	n/a	n/a	n/a	n/a	0	402.75	46.2	1
1619.342423	2.7	forage	4.528	173.4831665	285	5	25.60110155	1	n/a	n/a	n/a	n/a
1631.074779	2.7	forage	2.681	-41.42643563	185	40	198.5402897	0	n/a	n/a	n/a	n/a
1639.15759	1.8	engage	3.367	n/a	n/a	n/a	n/a	n/a	0	226.5	235.95	1
1653.873017	2.7	forage	3.901	-49.46206261	190	20	196.2903274	0	n/a	n/a	n/a	n/a
1666.488755	1.8	engage	2.494	n/a	n/a	n/a	n/a	n/a	0	149.6	318.2	0
1678.772	2.7	forage	4.035	-119.9440236	205	5	269.8427644	0	n/a	n/a	n/a	n/a
1688.120529	1.8	engage	2.83	n/a	n/a	n/a	n/a	n/a	0	125	175.2	0
1700.905507	2.7	forage	6.598	222.9386818	470	5	43.89210804	1	n/a	n/a	n/a	n/a
1718.403536	2.7	forage	2.62	-43.49644887	316.6666667	5	281.791937	0	n/a	n/a	n/a	n/a
1728.434025	1.8	engage	1.411	n/a	n/a	n/a	n/a	n/a	0	122.5	402.8	0
1737.8166	2.7	forage	2.894	-101.4675905	223.3333333	40	270.8417333	0	n/a	n/a	n/a	n/a
1746.016075	1.8	engage	1.991	n/a	n/a	n/a	n/a	n/a	0	242.05	367.2	0
1757.598436	2.7	forage	4.926	7.896805996	231.6666667	40	171.6475278	0	n/a	n/a	n/a	n/a
1770.79746	1.8	engage	3.142	n/a	n/a	n/a	n/a	n/a	0	126.5	142.8	1
1782.231585	2.7	forage	4.592	-55.68973392	293.3333333	40	264	0	n/a	n/a	n/a	n/a
1789.979298	1.8	engage	1.891	n/a	n/a	n/a	n/a	n/a	0	379.2	80.1	1
1800.061879	2.7	forage	3.952	168.481738	283.3333333	40	40.60444646	1	n/a	n/a	n/a	n/a
1810.061083	2.7	forage	2.199	-118.7478614	210	40	280.5	0	n/a	n/a	n/a	n/a
1815.394122	1.8	engage	1.931	n/a	n/a	n/a	n/a	n/a	0	22.4	446.25	0
1828.243825	2.7	forage	2.378	-27.49765773	301.6666667	40	231.5319903	0	n/a	n/a	n/a	n/a
1833.892647	1.8	engage	3.593	n/a	n/a	n/a	n/a	n/a	0	164.25	138.75	1
1845.49194	2.7	forage	2.49	198.8003554	406.6666667	5	49.5	1	n/a	n/a	n/a	n/a
1856.474193	2.7	forage	4.196	82.68199621	335	20	166.6972235	0	n/a	n/a	n/a	n/a
1864.690246	1.8	engage	2.483	n/a	n/a	n/a	n/a	n/a	0	134.4	283.8	0
1876.339304	2.7	forage	5.681	81.23379106	335	20	132	1	n/a	n/a	n/a	n/a
1888.923708	2.7	forage	4.594	-59.29664504	241.6666667	20	234.406896	0	n/a	n/a	n/a	n/a
1899.087612	1.8	engage	2.516	n/a	n/a	n/a	n/a	n/a	0	313.95	193.5	1