onset	duration	stage	RT	SearchEvidence	SearchValue	SearchCosts	OfferValue	Choice_isForage	ExcludeBlock	ExpValueLeft	ExpValueRight	Choice_isLeft
6.012754811	2.7	forage	5.254	234.7963952	436.6666667	40	15.14305115	1	n/a	n/a	n/a	n/a
18.061766	2.7	forage	3.974	38.86474859	326.6666667	20	207.6856546	0	n/a	n/a	n/a	n/a
28.21100167	1.8	engage	2.431	n/a	n/a	n/a	n/a	n/a	0	111	235.75	0
38.66016552	2.7	forage	3.686	244.9824103	455	20	15.14305115	1	n/a	n/a	n/a	n/a
48.97605832	2.7	forage	4.54	-26.54053619	305	40	262.0355364	0	n/a	n/a	n/a	n/a
57.92542429	1.8	engage	2.381	n/a	n/a	n/a	n/a	n/a	0	241.5	225.4	1
70.49111693	2.7	forage	4.089	-7.620178395	270	20	192.1464464	0	n/a	n/a	n/a	n/a
79.85709614	1.8	engage	2.569	n/a	n/a	n/a	n/a	n/a	0	303.4	93.5	1
90.57285627	2.7	forage	3.271	180.6009004	400	20	50.53410291	1	n/a	n/a	n/a	n/a
103.2551966	2.7	forage	2.707	7.322820784	300	5	211.86135	0	n/a	n/a	n/a	n/a
110.2214122	1.8	engage	1.846	n/a	n/a	n/a	n/a	n/a	0	77.9	150.15	0
123.5703782	2.7	forage	3.071	-104.1164764	210	20	243.6875409	0	n/a	n/a	n/a	n/a
130.936465	1.8	engage	3.041	n/a	n/a	n/a	n/a	n/a	0	302	256.15	1
142.1189589	2.7	forage	3.052	39.79363379	235	40	118.4529199	0	n/a	n/a	n/a	n/a
150.5516678	1.8	engage	4.821	n/a	n/a	n/a	n/a	n/a	0	73.6	83.6	1
166.3170762	2.7	forage	3.655	0.459250876	300	20	209	1	n/a	n/a	n/a	n/a
178.799428	2.7	forage	4.283	6.25987291	268.3333333	40	196.962854	0	n/a	n/a	n/a	n/a
186.5655093	1.8	engage	1.964	n/a	n/a	n/a	n/a	n/a	0	113.75	269.1	0
198.4145668	2.7	forage	3.652	-9.027901011	356.6666667	20	257.3499824	0	n/a	n/a	n/a	n/a
205.3474111	1.8	engage	1.871	n/a	n/a	n/a	n/a	n/a	0	58.75	125	0
217.4131283	2.7	forage	4.517	157.0893433	268.3333333	5	40.42545647	0	n/a	n/a	n/a	n/a
229.4455557	1.8	engage	1.582	n/a	n/a	n/a	n/a	n/a	0	45.6	17	1
241.9445528	2.7	forage	3.786	-0.391048405	275	20	197.9560133	0	n/a	n/a	n/a	n/a
253.1104801	1.8	engage	1.836	n/a	n/a	n/a	n/a	n/a	0	73.95	283.1	0
264.5594786	2.7	forage	4.155	159.4803766	323.3333333	20	65.85061114	0	n/a	n/a	n/a	n/a
272.2590417	1.8	engage	2.929	n/a	n/a	n/a	n/a	n/a	0	8.55	58.8	0
282.9081586	2.7	forage	2.712	164.2954563	336.6666667	20	58.14020925	0	n/a	n/a	n/a	n/a
292.1575259	1.8	engage	1.974	n/a	n/a	n/a	n/a	n/a	0	67	82.5	0
301.9566567	2.7	forage	2.829	227.2021662	475	40	36.65089784	1	n/a	n/a	n/a	n/a
314.5223775	2.7	forage	4.392	-17.71099039	331.6666667	40	264.3505105	0	n/a	n/a	n/a	n/a
323.2717536	1.8	engage	3.675	n/a	n/a	n/a	n/a	n/a	0	202.1	323.4	0
339.3205135	2.7	forage	4.986	-122.4396845	191.6666667	20	266.4272924	0	n/a	n/a	n/a	n/a
349.6864284	1.8	engage	2.987	n/a	n/a	n/a	n/a	n/a	0	157.95	374.4	0
361.5520888	2.7	forage	3.811	12.47522425	201.6666667	20	141.6845481	0	n/a	n/a	n/a	n/a
369.6848481	1.8	engage	2.365	n/a	n/a	n/a	n/a	n/a	0	120.4	67.15	1
382.5005122	2.7	forage	3.717	189.9288886	383.3333333	5	41.7829586	1	n/a	n/a	n/a	n/a
393.2845456	2.7	forage	2.935	64.90409436	318.3333333	20	166.6972235	0	n/a	n/a	n/a	n/a
401.5491447	1.8	engage	1.837	n/a	n/a	n/a	n/a	n/a	0	75.6	132	0
416.0145415	2.7	forage	4.316	-40.58760793	216.6666667	20	197.5518334	0	n/a	n/a	n/a	n/a
424.9139309	1.8	engage	2.578	n/a	n/a	n/a	n/a	n/a	0	42.75	194.4	0
436.8297625	2.7	forage	3.996	67.14365475	345	40	160.0723807	0	n/a	n/a	n/a	n/a
447.4122639	1.8	engage	2.296	n/a	n/a	n/a	n/a	n/a	0	217	63	1
460.0112681	2.7	forage	3.423	205.2543417	391.6666667	20	25.32334893	1	n/a	n/a	n/a	n/a
469.9437972	2.7	forage	3.898	-64.67481012	251.6666667	5	256.1313566	0	n/a	n/a	n/a	n/a
477.0765828	1.8	engage	3.718	n/a	n/a	n/a	n/a	n/a	0	284.2	169.85	1
489.9755379	2.7	forage	3.011	-90.6715524	190	40	218.8278507	0	n/a	n/a	n/a	n/a
498.5083559	1.8	engage	1.982	n/a	n/a	n/a	n/a	n/a	0	270.6	161.25	1
511.47394	2.7	forage	2.672	-107.8562882	191.6666667	40	247.3865751	0	n/a	n/a	n/a	n/a
518.2734729	1.8	engage	2.546	n/a	n/a	n/a	n/a	n/a	0	343	216	1
529.6725743	2.7	forage	2.906	-75.97144845	256.6666667	20	262.5038982	0	n/a	n/a	n/a	n/a
538.1219052	1.8	engage	2.969	n/a	n/a	n/a	n/a	n/a	0	104	210	0
549.7376431	2.7	forage	2.994	-132.5277669	176.6666667	5	259.43949	0	n/a	n/a	n/a	n/a
557.1704738	1.8	engage	2.104	n/a	n/a	n/a	n/a	n/a	0	93.6	456.45	1
566.6030679	2.7	forage	3.391	197.9682964	415	5	49.5	1	n/a	n/a	n/a	n/a
576.1022967	2.7	forage	2.74	-61.14528612	275	40	270.9133846	0	n/a	n/a	n/a	n/a
583.1018347	1.8	engage	2.948	n/a	n/a	n/a	n/a	n/a	0	455.8	237.3	1
595.3008202	2.7	forage	4.43	-56.08330902	180	5	202.5867914	0	n/a	n/a	n/a	n/a
605.3667542	1.8	engage	2.061	n/a	n/a	n/a	n/a	n/a	0	189.6	86	1
616.2825589	2.7	forage	5.343	-98.55329041	230	40	269.5	0	n/a	n/a	n/a	n/a
629.831614	1.8	engage	1.794	n/a	n/a	n/a	n/a	n/a	0	230.3	22.25	1
639.7307476	2.7	forage	4.881	182.2563318	303.3333333	20	35.40488406	1	n/a	n/a	n/a	n/a
655.4295446	2.7	forage	3.429	160.5864997	295	20	56.09579498	0	n/a	n/a	n/a	n/a
665.2288973	1.8	engage	3.813	n/a	n/a	n/a	n/a	n/a	0	35.75	21	1
677.7611665	2.7	forage	3.162	206.4500059	405	20	45.81396811	1	n/a	n/a	n/a	n/a
689.2936219	2.7	forage	2.276	-59.00316047	313.3333333	5	287.6922439	0	n/a	n/a	n/a	n/a
695.2432066	1.8	engage	3.448	n/a	n/a	n/a	n/a	n/a	0	136.8	265	0
709.9920272	2.7	forage	4.164	-19.20788525	306.6666667	5	225.7523012	0	n/a	n/a	n/a	n/a
717.5915439	1.8	engage	2.067	n/a	n/a	n/a	n/a	n/a	0	294.55	90	1
729.5905335	2.7	forage	5.726	172.1442365	340	40	32.28846637	0	n/a	n/a	n/a	n/a
741.8396787	1.8	engage	2.083	n/a	n/a	n/a	n/a	n/a	0	22.8	12.4	0
752.7054144	2.7	forage	4.531	-36.44404037	263.3333333	5	232.560837	0	n/a	n/a	n/a	n/a
762.4880816	1.8	engage	1.713	n/a	n/a	n/a	n/a	n/a	0	280	187	1
771.1373599	2.7	forage	3.528	-45.81269554	345	5	275	0	n/a	n/a	n/a	n/a
780.1701081	1.8	engage	2.93	n/a	n/a	n/a	n/a	n/a	0	14.35	277.5	0
791.3358042	2.7	forage	2.586	-102.5115789	208.3333333	5	274.3047885	0	n/a	n/a	n/a	n/a
799.4352861	1.8	engage	1.559	n/a	n/a	n/a	n/a	n/a	0	119.85	171.6	0
810.1843732	2.7	forage	4.347	-66.34145499	288.3333333	20	253.9497259	0	n/a	n/a	n/a	n/a
819.6504127	1.8	engage	3.921	n/a	n/a	n/a	n/a	n/a	0	73.5	150.4	0
832.1993375	2.7	forage	6.028	67.78630351	201.6666667	20	82.5	0	n/a	n/a	n/a	n/a
841.4319832	1.8	engage	1.802	n/a	n/a	n/a	n/a	n/a	0	9.2	90	0
850.3146051	2.7	forage	2.681	-122.2271096	176.6666667	5	248.9546049	0	n/a	n/a	n/a	n/a
857.214119	1.8	engage	3.141	n/a	n/a	n/a	n/a	n/a	0	178.45	152.75	1
869.1798577	2.7	forage	3.472	186.3759419	371.6666667	40	43.90040742	1	n/a	n/a	n/a	n/a
879.4957093	2.7	forage	3.452	-38.79274684	248.3333333	20	234.406896	0	n/a	n/a	n/a	n/a
888.278421	1.8	engage	3.012	n/a	n/a	n/a	n/a	n/a	0	243.75	90	1
899.3942657	2.7	forage	3.648	8.248386231	250	5	167.5454203	0	n/a	n/a	n/a	n/a
908.526937	1.8	engage	3.71	n/a	n/a	n/a	n/a	n/a	0	150.1	283.8	0
921.8591547	2.7	forage	3.072	31.25298023	270	5	177.8225441	0	n/a	n/a	n/a	n/a
929.1253361	1.8	engage	1.599	n/a	n/a	n/a	n/a	n/a	0	78	211.75	0
939.6411395	2.7	forage	3.099	120.4177892	295	20	97.21480308	0	n/a	n/a	n/a	n/a
946.2406413	1.8	engage	1.659	n/a	n/a	n/a	n/a	n/a	0	59	132.05	0
956.6565002	2.7	forage	2.473	-131.7200711	181.6666667	5	264.6871888	0	n/a	n/a	n/a	n/a
963.6726494	1.8	engage	3.69	n/a	n/a	n/a	n/a	n/a	0	117	260	0
976.5882482	2.7	forage	4.52	246.4871804	461.6666667	20	20.30222323	1	n/a	n/a	n/a	n/a
990.77055	2.7	forage	2.472	-23.70620525	313.3333333	40	265.363865	0	n/a	n/a	n/a	n/a
1000.736513	1.8	engage	1.803	n/a	n/a	n/a	n/a	n/a	0	327.5	158.7	1
1012.968856	2.7	forage	3.74	-104.358929	206.6666667	5	227.0907148	0	n/a	n/a	n/a	n/a
1021.151595	1.8	engage	1.708	n/a	n/a	n/a	n/a	n/a	0	331.5	116.1	1
1031.517397	2.7	forage	3.159	217.4336838	403.3333333	20	25.59501534	1	n/a	n/a	n/a	n/a
1043.116508	2.7	forage	2.893	-61.79866875	261.6666667	5	263.8370555	0	n/a	n/a	n/a	n/a
1050.299407	1.8	engage	1.942	n/a	n/a	n/a	n/a	n/a	0	129	234.6	0
1061.298462	2.7	forage	5.354	-158.6711316	165	40	268.279161	0	n/a	n/a	n/a	n/a
1072.014323	1.8	engage	1.748	n/a	n/a	n/a	n/a	n/a	0	273.6	384.25	0
1082.663493	2.7	forage	3.482	-136.8448284	138.3333333	40	247.5190886	0	n/a	n/a	n/a	n/a
1090.562888	1.8	engage	2.807	n/a	n/a	n/a	n/a	n/a	0	93.5	418.95	0
1105.311728	2.7	forage	4.29	-51.36398572	278.3333333	40	248.3199789	0	n/a	n/a	n/a	n/a
1116.061024	1.8	engage	3.023	n/a	n/a	n/a	n/a	n/a	0	107.8	233.45	0
1126.010147	2.7	forage	3.44	200.4010295	461.6666667	20	58.67385946	1	n/a	n/a	n/a	n/a
1137.909238	2.7	forage	3.676	-48.24813976	318.3333333	5	279.7646748	0	n/a	n/a	n/a	n/a
1147.158585	1.8	engage	2.372	n/a	n/a	n/a	n/a	n/a	0	331.2	275.6	0
1158.207742	2.7	forage	4.698	11.38249082	328.3333333	20	198	1	n/a	n/a	n/a	n/a
1170.656779	2.7	forage	2.369	-99.88174471	238.3333333	20	261.3400483	0	n/a	n/a	n/a	n/a
1177.656317	1.8	engage	3.722	n/a	n/a	n/a	n/a	n/a	0	180.95	127.2	1
1189.538722	2.7	forage	3.112	-126.1154436	158.3333333	40	260.2937729	0	n/a	n/a	n/a	n/a
1196.971473	1.8	engage	2.894	n/a	n/a	n/a	n/a	n/a	0	106	354.45	0
1207.937238	2.7	forage	3.522	89.41244404	328.3333333	20	130.7824808	0	n/a	n/a	n/a	n/a
1217.036599	1.8	engage	2.815	n/a	n/a	n/a	n/a	n/a	0	78.75	53.9	1
1230.752104	2.7	forage	4.771	-31.40487735	283.3333333	40	218.8223178	0	n/a	n/a	n/a	n/a
1241.084749	1.8	engage	1.974	n/a	n/a	n/a	n/a	n/a	0	369.8	297	1
1254.117021	2.7	forage	5.335	212.0524202	445	40	49.5	1	n/a	n/a	n/a	n/a
1266.282724	2.7	forage	2.423	-62.40883926	291.6666667	40	283.9774408	0	n/a	n/a	n/a	n/a
1272.215672	1.8	engage	2.578	n/a	n/a	n/a	n/a	n/a	0	185	394.85	0
1286.747817	2.7	forage	4.414	-110.2790805	220	5	280.5	0	n/a	n/a	n/a	n/a
1296.563799	1.8	engage	2.279	n/a	n/a	n/a	n/a	n/a	0	42.9	132.6	0
1307.412919	2.7	forage	3.79	0.148522039	283.3333333	40	217.6410392	0	n/a	n/a	n/a	n/a
1315.729046	1.8	engage	3.578	n/a	n/a	n/a	n/a	n/a	0	135.45	180.7	0
1327.344772	2.7	forage	3.155	204.624769	433.3333333	5	41.78074544	1	n/a	n/a	n/a	n/a
1338.227241	2.7	forage	2.583	17.82172258	331.6666667	5	222.7587144	0	n/a	n/a	n/a	n/a
1345.126768	1.8	engage	1.739	n/a	n/a	n/a	n/a	n/a	0	206.8	123.2	1
1357.113082	2.7	forage	3.026	133.3893164	450	40	120.2342438	1	n/a	n/a	n/a	n/a
1369.108209	2.7	forage	2.208	-2.467313851	353.3333333	20	245.3208591	0	n/a	n/a	n/a	n/a
1375.89106	1.8	engage	2.815	n/a	n/a	n/a	n/a	n/a	0	204	296.4	0
1389.589955	2.7	forage	4.238	157.9625857	380	40	55	0	n/a	n/a	n/a	n/a
1398.989271	1.8	engage	2.565	n/a	n/a	n/a	n/a	n/a	0	34.5	7.3	1
1410.355069	2.7	forage	4.401	-55.80970608	328.3333333	5	268.185378	0	n/a	n/a	n/a	n/a
1420.137714	1.8	engage	1.843	n/a	n/a	n/a	n/a	n/a	0	149.45	104	1
1430.236885	2.7	forage	2.992	-35.1193669	366.6666667	5	281.8469896	0	n/a	n/a	n/a	n/a
1436.753048	1.8	engage	1.867	n/a	n/a	n/a	n/a	n/a	0	59.2	421.2	0
1448.468776	2.7	forage	2.43	-59.6096977	306.6666667	20	266.8381118	0	n/a	n/a	n/a	n/a
1455.051694	1.8	engage	3.806	n/a	n/a	n/a	n/a	n/a	0	230.3	247.2	0
1465.800813	2.7	forage	4.363	146.9989739	291.6666667	40	43.90040742	1	n/a	n/a	n/a	n/a
1478.883194	2.7	forage	2.607	3.686290093	210	20	165.5676777	0	n/a	n/a	n/a	n/a
1484.799397	1.8	engage	4.172	n/a	n/a	n/a	n/a	n/a	0	195.2	116.1	1
1497.081769	2.7	forage	4.416	-101.0595191	215	5	277.3628339	0	n/a	n/a	n/a	n/a
1507.01439	1.8	engage	3.628	n/a	n/a	n/a	n/a	n/a	0	397.8	91.5	1
1517.596811	2.7	forage	4.565	156.1814463	338.3333333	20	92.86592727	0	n/a	n/a	n/a	n/a
1527.629428	1.8	engage	1.557	n/a	n/a	n/a	n/a	n/a	0	143.1	118.5	1
1540.945072	2.7	forage	4.675	-79.47009875	276.6666667	5	280.0446406	0	n/a	n/a	n/a	n/a
1550.844311	1.8	engage	3.773	n/a	n/a	n/a	n/a	n/a	0	429.3	174.3	1
1562.47674	2.7	forage	4.303	-89.35056754	181.6666667	40	212.3894673	0	n/a	n/a	n/a	n/a
1570.326173	1.8	engage	2.438	n/a	n/a	n/a	n/a	n/a	0	174.3	120	1
1580.791946	2.7	forage	3.653	109.7363194	276.6666667	40	70.79648911	0	n/a	n/a	n/a	n/a
1589.591389	1.8	engage	1.666	n/a	n/a	n/a	n/a	n/a	0	47.6	37.5	1