onset	duration	stage	RT	SearchEvidence	SearchValue	SearchCosts	OfferValue	Choice_isForage	ExcludeBlock	ExpValueLeft	ExpValueRight	Choice_isLeft
6.018717697	2.7	forage	2.691	-54.44215247	296.6666667	40	280.8294854	0	n/a	n/a	n/a	n/a
17.36517362	1.8	engage	1.631	n/a	n/a	n/a	n/a	n/a	0	160	460.2	0
28.04768849	2.7	forage	6.845	-87.50707208	196.6666667	5	242.9643881	0	n/a	n/a	n/a	n/a
40.16339163	1.8	engage	7.096	n/a	n/a	n/a	n/a	n/a	0	81.2	230.4	0
57.7995702	2.7	forage	3.012	-80.72356354	301.6666667	5	279.7605251	0	n/a	n/a	n/a	n/a
65.31153552	1.8	engage	7.042	n/a	n/a	n/a	n/a	n/a	0	373.65	393.6	0
79.26038092	2.7	forage	5.574	-105.5319635	196.6666667	20	242.2841155	0	n/a	n/a	n/a	n/a
91.59281055	1.8	engage	4.098	n/a	n/a	n/a	n/a	n/a	0	306.15	124.55	1
105.1584219	2.7	forage	12.15	39.11496571	403.3333333	20	200.8657764	0	n/a	n/a	n/a	n/a
123.6403576	1.8	engage	1.323	n/a	n/a	n/a	n/a	n/a	0	294.15	158.4	1
132.2895941	2.7	forage	3.969	-71.06398739	226.6666667	40	251.9653438	0	n/a	n/a	n/a	n/a
141.7223021	1.8	engage	1.45	n/a	n/a	n/a	n/a	n/a	0	351.9	57	1
153.1760654	2.7	forage	4.894	35.52452425	198.3333333	5	99	0	n/a	n/a	n/a	n/a
163.0873271	1.8	engage	2.748	n/a	n/a	n/a	n/a	n/a	0	45	35.4	0
177.6393794	2.7	forage	13.092	133.7219187	431.6666667	5	107.1228811	0	n/a	n/a	n/a	n/a
195.3848909	1.8	engage	3.347	n/a	n/a	n/a	n/a	n/a	0	48	22.75	1
207.8550409	2.7	forage	4.285	-98.76861325	233.3333333	5	281.791937	0	n/a	n/a	n/a	n/a
217.9665051	1.8	engage	2.918	n/a	n/a	n/a	n/a	n/a	0	151.9	431.95	0
228.682288	2.7	forage	4.202	1.990615831	331.6666667	20	237.5805794	0	n/a	n/a	n/a	n/a
239.3981516	1.8	engage	3.943	n/a	n/a	n/a	n/a	n/a	0	156.6	200.25	1
252.3002147	2.7	forage	15.538	102.8888134	251.6666667	20	82.5	1	n/a	n/a	n/a	n/a
276.2148705	2.7	forage	11.389	84.606051	235	20	98.32802676	1	n/a	n/a	n/a	n/a
296.4770359	2.7	forage	3.829	-55.34735677	211.6666667	40	214.5	0	n/a	n/a	n/a	n/a
304.9098501	1.8	engage	2.589	n/a	n/a	n/a	n/a	n/a	0	113.1	20.1	0
315.8088571	2.7	forage	3.785	-78.69329511	245	5	251.9747498	0	n/a	n/a	n/a	n/a
326.0748783	1.8	engage	3.052	n/a	n/a	n/a	n/a	n/a	0	102	225.4	1
336.1740708	2.7	forage	8.404	128.7665795	375	5	102.7629395	0	n/a	n/a	n/a	n/a
350.4396394	1.8	engage	13.42	n/a	n/a	n/a	n/a	n/a	0	51	121.6	1
373.2712061	2.7	forage	4.795	-78.69899401	281.6666667	5	268.279161	0	n/a	n/a	n/a	n/a
383.820417	1.8	engage	2.182	n/a	n/a	n/a	n/a	n/a	0	203.2	198.75	1
395.6361206	2.7	forage	9.656	-5.160333987	261.6666667	20	209	0	n/a	n/a	n/a	n/a
411.7182815	1.8	engage	7.014	n/a	n/a	n/a	n/a	n/a	0	273.6	16.7	1
426.1504749	2.7	forage	4.79	-146.8743541	168.3333333	5	277.0756753	0	n/a	n/a	n/a	n/a
434.433227	1.8	engage	2.363	n/a	n/a	n/a	n/a	n/a	0	259.7	83.95	1
448.882008	2.7	forage	5.035	-27.36669349	318.3333333	5	236.5	0	n/a	n/a	n/a	n/a
462.3644483	1.8	engage	2.168	n/a	n/a	n/a	n/a	n/a	0	212.85	21.8	1
476.0507474	2.7	forage	2.561	-134.210365	193.3333333	20	277.9006338	0	n/a	n/a	n/a	n/a
482.2461936	1.8	engage	3.695	n/a	n/a	n/a	n/a	n/a	0	263.2	466.4	0
498.1991135	2.7	forage	2.246	-104.3101839	170	40	240.1002716	0	n/a	n/a	n/a	n/a
504.1111689	1.8	engage	1.677	n/a	n/a	n/a	n/a	n/a	0	222.75	262.5	0
517.5808215	2.7	forage	2.633	13.1107171	238.3333333	40	174.5619939	0	n/a	n/a	n/a	n/a
524.7596345	1.8	engage	2.956	n/a	n/a	n/a	n/a	n/a	0	22.5	80	0
536.6786574	2.7	forage	5.142	36.46039938	386.6666667	5	209	0	n/a	n/a	n/a	n/a
546.4246596	1.8	engage	1.963	n/a	n/a	n/a	n/a	n/a	0	13.2	334.4	0
555.7571566	2.7	forage	4.431	-129.9658954	168.3333333	5	257.0318394	0	n/a	n/a	n/a	n/a
564.6066085	1.8	engage	6.909	n/a	n/a	n/a	n/a	n/a	0	277.5	58.75	1
580.1752162	2.7	forage	2.142	126.5907583	355	5	101.2167648	0	n/a	n/a	n/a	n/a
587.3047878	1.8	engage	1.291	n/a	n/a	n/a	n/a	n/a	0	95	18.9	1
600.0705053	2.7	forage	10.222	204.1974616	333.3333333	5	42.53654243	0	n/a	n/a	n/a	n/a
616.8359457	1.8	engage	6.431	n/a	n/a	n/a	n/a	n/a	0	14.1	34.8	0
636.0391419	2.7	forage	4.054	-73.30873028	195	40	221.3727177	0	n/a	n/a	n/a	n/a
646.7503089	1.8	engage	5.59	n/a	n/a	n/a	n/a	n/a	0	264.6	61.2	1
660.5657856	2.7	forage	6.598	-58.38681153	245	40	230.9333283	0	n/a	n/a	n/a	n/a
670.6983769	1.8	engage	3.546	n/a	n/a	n/a	n/a	n/a	0	326.25	174.8	1
685.9972508	2.7	forage	6.239	43.97611622	351.6666667	40	196.9783462	0	n/a	n/a	n/a	n/a
697.5297438	1.8	engage	23.003	n/a	n/a	n/a	n/a	n/a	0	118.95	128.25	0
728.6939276	2.7	forage	5.62	4.558315309	211.6666667	20	161.5087269	1	n/a	n/a	n/a	n/a
742.8262206	2.7	forage	9.033	161.7935801	270	5	15.14305115	0	n/a	n/a	n/a	n/a
759.5749166	1.8	engage	2.052	n/a	n/a	n/a	n/a	n/a	0	19.5	8.1	1
772.7072728	2.7	forage	10.16	-103.9453247	178.3333333	5	254.4203008	0	n/a	n/a	n/a	n/a
788.1227725	1.8	engage	9.344	n/a	n/a	n/a	n/a	n/a	0	300	343.2	0
808.4238239	2.7	forage	4.735	43.51819325	238.3333333	5	132.6819325	0	n/a	n/a	n/a	n/a
817.7037916	1.8	engage	2.394	n/a	n/a	n/a	n/a	n/a	0	107.5	129.95	0
827.1697507	2.7	forage	4.104	-79.59733749	281.6666667	5	283.974951	0	n/a	n/a	n/a	n/a
836.7024281	1.8	engage	1.763	n/a	n/a	n/a	n/a	n/a	0	227.9	370	0
849.2020819	2.7	forage	2.873	-63.09414684	340	5	283.9774408	0	n/a	n/a	n/a	n/a
855.7676534	1.8	engage	7.267	n/a	n/a	n/a	n/a	n/a	0	215	143.1	0
873.4995853	2.7	forage	2.052	-109.3188237	241.6666667	5	270.9133846	0	n/a	n/a	n/a	n/a
879.9656901	1.8	engage	14.679	n/a	n/a	n/a	n/a	n/a	0	416.05	285.6	1
902.7639465	2.7	forage	9.431	232.7522392	476.6666667	40	36.65089784	0	n/a	n/a	n/a	n/a
917.5462222	1.8	engage	1.833	n/a	n/a	n/a	n/a	n/a	0	29.75	21.45	0
928.5119683	2.7	forage	4.508	-57.04684875	246.6666667	40	249.6528595	0	n/a	n/a	n/a	n/a
937.6113604	1.8	engage	3.127	n/a	n/a	n/a	n/a	n/a	0	196	136.35	0
951.0102211	2.7	forage	15.378	8.815934812	350	40	229.1417685	0	n/a	n/a	n/a	n/a
971.0921486	1.8	engage	6.52	n/a	n/a	n/a	n/a	n/a	0	222.5	400.5	0
986.8741357	2.7	forage	7.834	228.1624231	428.3333333	5	25.32334893	1	n/a	n/a	n/a	n/a
1002.50624	2.7	forage	5.074	-47.02235803	281.6666667	5	265.3682913	0	n/a	n/a	n/a	n/a
1014.072092	1.8	engage	2.102	n/a	n/a	n/a	n/a	n/a	0	121.9	307.5	0
1025.00455	2.7	forage	5.718	43.32784233	286.6666667	40	151.880338	0	n/a	n/a	n/a	n/a
1036.653767	1.8	engage	10.804	n/a	n/a	n/a	n/a	n/a	0	192	60.3	1
1055.018991	2.7	forage	21.721	-91.3299331	220	5	253	0	n/a	n/a	n/a	n/a
1082.483578	1.8	engage	3.087	n/a	n/a	n/a	n/a	n/a	0	227.7	15.7	0
1099.565507	2.7	forage	3.052	71.15852657	305	40	132	0	n/a	n/a	n/a	n/a
1105.731739	1.8	engage	2.495	n/a	n/a	n/a	n/a	n/a	0	24.15	100.8	1
1116.030885	2.7	forage	3.381	-112.6965428	206.6666667	40	258.7309994	0	n/a	n/a	n/a	n/a
1123.113766	1.8	engage	2.152	n/a	n/a	n/a	n/a	n/a	0	146.3	374.85	0
1134.99614	2.7	forage	6.238	-111.8775414	171.6666667	40	229.9260601	0	n/a	n/a	n/a	n/a
1147.011952	1.8	engage	4.552	n/a	n/a	n/a	n/a	n/a	0	405	56.4	1
1162.827408	2.7	forage	5.728	-81.93778147	273.3333333	5	257.494115	0	n/a	n/a	n/a	n/a
1174.209815	1.8	engage	1.761	n/a	n/a	n/a	n/a	n/a	0	219.3	117.15	1
1182.942422	2.7	forage	4.469	-17.1538437	241.6666667	40	192.6264272	0	n/a	n/a	n/a	n/a
1192.208449	1.8	engage	1.955	n/a	n/a	n/a	n/a	n/a	0	244.2	91.2	1
1203.957582	2.7	forage	7.719	102.2500562	330	40	128.0055078	0	n/a	n/a	n/a	n/a
1215.523323	1.8	engage	2.185	n/a	n/a	n/a	n/a	n/a	0	43	138.75	0
1225.155853	2.7	forage	4.359	240.7069195	468.3333333	40	20.58799859	0	n/a	n/a	n/a	n/a
1234.4386	1.8	engage	18.404	n/a	n/a	n/a	n/a	n/a	0	12.9	21.2	0
1260.169991	2.7	forage	4.288	213.8723639	395	5	20.58799859	0	n/a	n/a	n/a	n/a
1268.169288	1.8	engage	2.337	n/a	n/a	n/a	n/a	n/a	0	14.6	10.6	1
1282.018182	2.7	forage	12.563	228.0745419	455	20	30.29716815	1	n/a	n/a	n/a	n/a
1307.182903	2.7	forage	4.781	-25.39865198	328.3333333	5	267.8910266	0	n/a	n/a	n/a	n/a
1317.348911	1.8	engage	3.782	n/a	n/a	n/a	n/a	n/a	0	392.2	252.45	1
1330.514461	2.7	forage	9.631	137.5007931	281.6666667	20	71.5	1	n/a	n/a	n/a	n/a
1348.829772	2.7	forage	12.244	89.30099257	241.6666667	40	112.0518837	0	n/a	n/a	n/a	n/a
1364.378578	1.8	engage	2.202	n/a	n/a	n/a	n/a	n/a	0	159.5	71.4	1
1377.077644	2.7	forage	4.175	230.369081	475	40	32.30174539	0	n/a	n/a	n/a	n/a
1385.926926	1.8	engage	2.389	n/a	n/a	n/a	n/a	n/a	0	16.3	40.8	1
1395.542882	2.7	forage	4.63	-94.07914927	260	40	274.3047885	0	n/a	n/a	n/a	n/a
1406.825369	1.8	engage	13.01	n/a	n/a	n/a	n/a	n/a	0	303.15	408.2	0
1429.656859	2.7	forage	2.302	103.5945928	301.6666667	40	99	0	n/a	n/a	n/a	n/a
1437.456315	1.8	engage	2.107	n/a	n/a	n/a	n/a	n/a	0	18.3	36	1
1448.825537	2.7	forage	9.635	14.29411666	258.3333333	5	171.8646949	0	n/a	n/a	n/a	n/a
1462.804378	1.8	engage	2.432	n/a	n/a	n/a	n/a	n/a	0	79.2	256.7	0
1472.720293	2.7	forage	4.163	172.4850645	416.6666667	20	80.75436346	1	n/a	n/a	n/a	n/a
1482.669541	2.7	forage	18.294	-36.41045554	295	20	255.8408782	0	n/a	n/a	n/a	n/a
1505.717831	1.8	engage	4.99	n/a	n/a	n/a	n/a	n/a	0	143.35	243.8	0
1521.185733	2.7	forage	10.981	-86.93286555	233.3333333	40	262.4123284	0	n/a	n/a	n/a	n/a
1535.565465	1.8	engage	7.335	n/a	n/a	n/a	n/a	n/a	0	270	103.95	1
1553.397427	2.7	forage	5.516	228.8611388	423.3333333	5	26.38622303	0	n/a	n/a	n/a	n/a
1564.613315	1.8	engage	2.469	n/a	n/a	n/a	n/a	n/a	0	37	13.6	1
1576.928975	2.7	forage	5.257	159.1429237	393.3333333	40	93.85161712	1	n/a	n/a	n/a	n/a
1588.844659	2.7	forage	2.002	-54.6390138	280	5	263.8370555	0	n/a	n/a	n/a	n/a
1597.09412	1.8	engage	11.757	n/a	n/a	n/a	n/a	n/a	0	144.05	140.25	0
1616.525926	2.7	forage	2.157	-82.30302802	181.6666667	20	225.1569589	0	n/a	n/a	n/a	n/a
1626.291875	1.8	engage	1.792	n/a	n/a	n/a	n/a	n/a	0	61.5	303.4	0
1636.474343	2.7	forage	13.233	182.5933052	296.6666667	20	35.55703938	0	n/a	n/a	n/a	n/a
1652.956504	1.8	engage	1.645	n/a	n/a	n/a	n/a	n/a	0	15.4	13.2	0
1665.238889	2.7	forage	2.598	-134.6991063	151.6666667	40	253.1338967	0	n/a	n/a	n/a	n/a
1673.488275	1.8	engage	3.643	n/a	n/a	n/a	n/a	n/a	0	147.5	184.5	0
1687.487133	2.7	forage	4.58	-131.1308335	163.3333333	5	244.8453046	0	n/a	n/a	n/a	n/a
1699.719578	1.8	engage	4.284	n/a	n/a	n/a	n/a	n/a	0	264	303.75	0
1712.918539	2.7	forage	12.687	86.53495632	228.3333333	5	77	0	n/a	n/a	n/a	n/a
1730.217269	1.8	engage	3.907	n/a	n/a	n/a	n/a	n/a	0	107.1	22.5	1
1743.599607	2.7	forage	3.341	-1.397615814	240	40	181.8233992	0	n/a	n/a	n/a	n/a
1750.482404	1.8	engage	3.53	n/a	n/a	n/a	n/a	n/a	0	202.4	172.8	1
1764.43137	2.7	forage	10.037	64.02520832	390	40	168.9505055	0	n/a	n/a	n/a	n/a
1778.946828	1.8	engage	2.657	n/a	n/a	n/a	n/a	n/a	0	120	150.8	0
1789.762632	2.7	forage	4.706	227.6834566	430	5	20.30222323	0	n/a	n/a	n/a	n/a
1800.145219	1.8	engage	1.97	n/a	n/a	n/a	n/a	n/a	0	28.8	23.7	0
1813.644128	2.7	forage	13.952	-20.85710142	281.6666667	20	216.1739852	0	n/a	n/a	n/a	n/a
1831.109491	1.8	engage	4.102	n/a	n/a	n/a	n/a	n/a	0	177.45	138.6	1