onset	duration	stage	RT	SearchEvidence	SearchValue	SearchCosts	OfferValue	Choice_isForage	ExcludeBlock	ExpValueLeft	ExpValueRight	Choice_isLeft
6.01770216	2.7	forage	2.6	-51.05213185	326.6666667	5	270.8417333	0	n/a	n/a	n/a	n/a
12.98200537	1.8	engage	2.562	n/a	n/a	n/a	n/a	n/a	0	321.95	242.25	1
27.33090426	2.7	forage	2.407	-106.768018	176.6666667	20	247.6778834	0	n/a	n/a	n/a	n/a
33.16377789	1.8	engage	1.516	n/a	n/a	n/a	n/a	n/a	0	100	168	0
44.58108128	2.7	forage	5.325	29.51086632	253.3333333	40	167.3454052	0	n/a	n/a	n/a	n/a
55.44543631	1.8	engage	1.363	n/a	n/a	n/a	n/a	n/a	0	220.1	85	1
68.59487001	2.7	forage	3.557	-34.85137066	360	20	272.9135355	0	n/a	n/a	n/a	n/a
76.54382267	1.8	engage	1.472	n/a	n/a	n/a	n/a	n/a	0	260.1	97.2	1
88.30949203	2.7	forage	3.467	-136.1389752	170	5	257.7721443	0	n/a	n/a	n/a	n/a
95.00913022	1.8	engage	3.272	n/a	n/a	n/a	n/a	n/a	0	170.85	151.2	1
107.9923398	2.7	forage	4.522	245.555289	480	40	20.58799859	1	n/a	n/a	n/a	n/a
119.5404504	2.7	forage	3.42	-7.577279815	335	40	259.9222373	0	n/a	n/a	n/a	n/a
127.3232922	1.8	engage	3.046	n/a	n/a	n/a	n/a	n/a	0	118.25	402.5	0
138.3723757	2.7	forage	2.373	-71.5219657	271.6666667	5	274.1650822	0	n/a	n/a	n/a	n/a
147.2551059	1.8	engage	3.819	n/a	n/a	n/a	n/a	n/a	0	50.4	332.8	0
158.7874966	2.7	forage	2.573	-97.22638533	155	20	230.1595493	0	n/a	n/a	n/a	n/a
166.7702904	1.8	engage	3.742	n/a	n/a	n/a	n/a	n/a	0	215.6	76	1
180.6194961	2.7	forage	5.124	71.22381503	325	40	154	1	n/a	n/a	n/a	n/a
191.7182654	2.7	forage	4.353	-77.41801217	246.6666667	5	266.4134601	0	n/a	n/a	n/a	n/a
201.3343332	1.8	engage	1.45	n/a	n/a	n/a	n/a	n/a	0	358.8	216	1
210.7670682	2.7	forage	3.402	219.385274	388.3333333	5	30.95530909	1	n/a	n/a	n/a	n/a
222.684727	2.7	forage	3.789	-90.68149322	238.3333333	40	278.4890599	0	n/a	n/a	n/a	n/a
229.8820624	1.8	engage	1.485	n/a	n/a	n/a	n/a	n/a	0	148.2	389.55	0
239.2979182	2.7	forage	5.207	156.3488356	343.3333333	40	40.60444646	1	n/a	n/a	n/a	n/a
253.6135747	2.7	forage	3.338	-46.42133528	240	20	218.8223178	0	n/a	n/a	n/a	n/a
262.0295522	1.8	engage	1.914	n/a	n/a	n/a	n/a	n/a	0	290.25	217.8	1
272.2287881	2.7	forage	5.036	75.79018996	295	20	110.8130627	1	n/a	n/a	n/a	n/a
284.3278328	2.7	forage	2.641	90.08443573	303.3333333	5	96.48694734	1	n/a	n/a	n/a	n/a
297.7959678	2.7	forage	5.288	-64.56215985	243.3333333	40	217.0918968	0	n/a	n/a	n/a	n/a
307.4594154	1.8	engage	2.246	n/a	n/a	n/a	n/a	n/a	0	86	246.4	0
319.4613926	2.7	forage	3.701	7.251667421	316.6666667	20	207.323525	0	n/a	n/a	n/a	n/a
329.6577406	1.8	engage	1.919	n/a	n/a	n/a	n/a	n/a	0	124	158.1	0
340.9235201	2.7	forage	2.389	207.0757608	428.3333333	5	40.42545647	1	n/a	n/a	n/a	n/a
350.7893712	2.7	forage	5.204	-41.70721292	308.3333333	20	268.2675419	0	n/a	n/a	n/a	n/a
361.4886802	1.8	engage	1.641	n/a	n/a	n/a	n/a	n/a	0	363.05	172.8	1
374.770852	2.7	forage	5.054	65.8907617	335	20	154	1	n/a	n/a	n/a	n/a
386.2200637	2.7	forage	2.819	-101.0897473	271.6666667	40	289.0085257	0	n/a	n/a	n/a	n/a
392.1529965	1.8	engage	3.847	n/a	n/a	n/a	n/a	n/a	0	424	42	1
403.9686234	2.7	forage	4.369	221.7277836	411.6666667	20	36.35848297	1	n/a	n/a	n/a	n/a
416.7343714	2.7	forage	2.875	-47.00697651	321.6666667	20	283.2055983	0	n/a	n/a	n/a	n/a
425.0837976	1.8	engage	2.429	n/a	n/a	n/a	n/a	n/a	0	44.25	169	0
438.4827382	2.7	forage	5.311	84.61226632	276.6666667	5	114.494115	1	n/a	n/a	n/a	n/a
449.7984714	2.7	forage	2.897	-71.16155123	266.6666667	5	242	0	n/a	n/a	n/a	n/a
457.9813051	1.8	engage	5.788	n/a	n/a	n/a	n/a	n/a	0	10.2	94.6	0
471.2802081	2.7	forage	2.608	233.9474238	421.6666667	5	26.39784216	1	n/a	n/a	n/a	n/a
480.8330996	2.7	forage	3.722	-57.12727898	268.3333333	40	272.3367285	0	n/a	n/a	n/a	n/a
487.8456545	1.8	engage	1.426	n/a	n/a	n/a	n/a	n/a	0	441	417.5	1
498.3142571	2.7	forage	3.351	200.801908	413.3333333	40	35.39824456	1	n/a	n/a	n/a	n/a
507.977336	2.7	forage	3.127	-72.57615311	271.6666667	5	270.761506	0	n/a	n/a	n/a	n/a
514.3769304	1.8	engage	2.6	n/a	n/a	n/a	n/a	n/a	0	168.75	397.8	0
523.6928702	2.7	forage	4.469	132.6436447	340	20	86.18769177	1	n/a	n/a	n/a	n/a
535.0585994	2.7	forage	4.582	-35.37849203	253.3333333	40	217.3580303	0	n/a	n/a	n/a	n/a
547.1577537	1.8	engage	1.724	n/a	n/a	n/a	n/a	n/a	0	222.3	100	1
558.7924409	2.7	forage	6.794	228.398144	438.3333333	40	20.30222323	1	n/a	n/a	n/a	n/a
571.9391531	2.7	forage	2.317	24.05382023	323.3333333	5	218.8278507	0	n/a	n/a	n/a	n/a
578.6554176	1.8	engage	4.737	n/a	n/a	n/a	n/a	n/a	0	117.15	86	0
591.3543133	2.7	forage	2.367	-57.9660329	196.6666667	40	202.5867914	0	n/a	n/a	n/a	n/a
597.820547	1.8	engage	3.468	n/a	n/a	n/a	n/a	n/a	0	79.2	344	0
610.1694731	2.7	forage	3.536	-49.54206864	211.6666667	20	211.86135	0	n/a	n/a	n/a	n/a
617.8356938	1.8	engage	3.78	n/a	n/a	n/a	n/a	n/a	0	191.9	169.65	1
630.8197423	2.7	forage	5.293	59.16971983	285	20	151.1931492	1	n/a	n/a	n/a	n/a
642.4670079	2.7	forage	2.604	139.7947789	315	5	74.83137166	1	n/a	n/a	n/a	n/a
653.5700437	2.7	forage	2.639	-141.094794	183.3333333	40	272.4520899	0	n/a	n/a	n/a	n/a
661.3490533	1.8	engage	3.707	n/a	n/a	n/a	n/a	n/a	0	234.6	135.2	1
672.8647148	2.7	forage	3.368	65.46681086	308.3333333	20	147.3831799	1	n/a	n/a	n/a	n/a
685.6488783	2.7	forage	2.57	-113.8840367	283.3333333	20	291.0020371	0	n/a	n/a	n/a	n/a
693.5298893	1.8	engage	1.894	n/a	n/a	n/a	n/a	n/a	0	471.7	80.6	1
704.2789144	2.7	forage	3.266	218.5690576	431.6666667	40	30.84382073	1	n/a	n/a	n/a	n/a
716.228068	2.7	forage	4.364	-77.43007394	275	20	283.3325788	0	n/a	n/a	n/a	n/a
724.8774604	1.8	engage	3.372	n/a	n/a	n/a	n/a	n/a	0	293.8	117.3	1
738.4120523	2.7	forage	4.366	-46.59123284	343.3333333	20	274.5648358	0	n/a	n/a	n/a	n/a
746.0591987	1.8	engage	2.518	n/a	n/a	n/a	n/a	n/a	0	85.85	142.8	0
757.1451966	2.7	forage	3.272	95.86482571	308.3333333	40	109.7302701	1	n/a	n/a	n/a	n/a
766.7241487	2.7	forage	2.853	23.2236239	273.3333333	40	174.4897892	0	n/a	n/a	n/a	n/a
776.8901142	1.8	engage	1.487	n/a	n/a	n/a	n/a	n/a	0	48.1	237.6	0
789.7224677	2.7	forage	2.357	218.5533625	336.6666667	5	15.14305115	1	n/a	n/a	n/a	n/a
799.9716905	2.7	forage	4.527	-122.904708	181.6666667	5	274.633444	0	n/a	n/a	n/a	n/a
808.9376435	1.8	engage	1.592	n/a	n/a	n/a	n/a	n/a	0	299.45	261	1
818.4036013	2.7	forage	2.532	145.3034472	308.3333333	40	55	1	n/a	n/a	n/a	n/a
830.4393853	2.7	forage	2.338	-45.99565079	205	40	207.3301645	0	n/a	n/a	n/a	n/a
837.1521523	1.8	engage	1.535	n/a	n/a	n/a	n/a	n/a	0	297.5	132	1
849.6037271	2.7	forage	4.303	63.04874	195	20	87.49788743	1	n/a	n/a	n/a	n/a
861.5669369	2.7	forage	3.762	99.8856362	223.3333333	40	52.79568432	1	n/a	n/a	n/a	n/a
871.4328522	2.7	forage	4.464	40.81229985	191.6666667	5	106.6711182	1	n/a	n/a	n/a	n/a
883.4986003	2.7	forage	7.51	27.21562631	185	5	116.3689452	0	n/a	n/a	n/a	n/a
896.6808987	1.8	engage	2.311	n/a	n/a	n/a	n/a	n/a	0	155.25	83.3	1
909.4166633	2.7	forage	3.777	143.6729507	290	40	50.53410291	1	n/a	n/a	n/a	n/a
923.6288257	2.7	forage	3.485	-33.92091779	208.3333333	20	192.5893567	0	n/a	n/a	n/a	n/a
934.4447057	1.8	engage	1.772	n/a	n/a	n/a	n/a	n/a	0	210.9	154	1
944.3605887	2.7	forage	4.672	59.04960012	288.3333333	40	151.1931492	1	n/a	n/a	n/a	n/a
956.259672	2.7	forage	3.606	-49.27842496	220	40	218.1508978	0	n/a	n/a	n/a	n/a
966.3589658	1.8	engage	1.53	n/a	n/a	n/a	n/a	n/a	0	144.9	122.4	1
976.8287921	2.7	forage	4.014	-96.86978858	258.3333333	40	261.5732609	0	n/a	n/a	n/a	n/a
986.0407149	1.8	engage	3.168	n/a	n/a	n/a	n/a	n/a	0	299.2	277.5	1
998.3397294	2.7	forage	4.565	-75.77253995	261.6666667	20	267.313113	0	n/a	n/a	n/a	n/a
1008.35571	1.8	engage	2.524	n/a	n/a	n/a	n/a	n/a	0	436.8	130	1
1019.888144	2.7	forage	2.567	-151.6232232	176.6666667	40	270.922514	0	n/a	n/a	n/a	n/a
1027.954258	1.8	engage	2.96	n/a	n/a	n/a	n/a	n/a	0	338.1	439.9	0
1043.83633	2.7	forage	5.179	77.31613266	276.6666667	5	95.93503848	1	n/a	n/a	n/a	n/a
1058.168559	2.7	forage	4.208	27.77944939	246.6666667	20	138.1581409	0	n/a	n/a	n/a	n/a
1065.601357	1.8	engage	1.759	n/a	n/a	n/a	n/a	n/a	0	108	223.6	0
1076.567076	2.7	forage	5.594	-39.18702279	240	20	203.5	0	n/a	n/a	n/a	n/a
1086.616342	1.8	engage	2.511	n/a	n/a	n/a	n/a	n/a	0	39.75	140.6	0
1098.215428	2.7	forage	5.273	66.50036048	298.3333333	5	118.9002565	1	n/a	n/a	n/a	n/a
1111.981101	2.7	forage	4.411	36.54966383	265	20	146.4583522	0	n/a	n/a	n/a	n/a
1120.463754	1.8	engage	1.776	n/a	n/a	n/a	n/a	n/a	0	174	127	1
1129.862991	2.7	forage	3.201	-19.17280653	350	40	258.7309994	0	n/a	n/a	n/a	n/a
1138.312459	1.8	engage	3.569	n/a	n/a	n/a	n/a	n/a	0	159.6	336.6	0
1151.611386	2.7	forage	2.236	248.6119142	470	5	25.60110155	1	n/a	n/a	n/a	n/a
1161.877267	2.7	forage	2.469	-43.40174371	313.3333333	20	283.9774408	0	n/a	n/a	n/a	n/a
1169.676668	1.8	engage	2.515	n/a	n/a	n/a	n/a	n/a	0	237.5	294.15	0
1182.27561	2.7	forage	2.412	-123.8053938	220	40	277.9006338	0	n/a	n/a	n/a	n/a
1190.208456	1.8	engage	1.656	n/a	n/a	n/a	n/a	n/a	0	232.65	164.3	1
1200.907614	2.7	forage	6.621	162.8325151	258.3333333	5	42.53239274	1	n/a	n/a	n/a	n/a
1214.539831	2.7	forage	4.933	7.778069514	213.3333333	5	176	1	n/a	n/a	n/a	n/a
1226.775693	2.7	forage	2.45	-84.81357242	188.3333333	5	247.5	0	n/a	n/a	n/a	n/a
1233.321792	1.8	engage	4.503	n/a	n/a	n/a	n/a	n/a	0	60	333	0
1246.85412	2.7	forage	4.467	-69.51244572	235	20	265.6051003	0	n/a	n/a	n/a	n/a
1255.753474	1.8	engage	2.903	n/a	n/a	n/a	n/a	n/a	0	123	429	0
1269.089847	2.7	forage	3.271	95.45101856	403.3333333	20	162.1394799	1	n/a	n/a	n/a	n/a
1278.73489	2.7	forage	3.602	-17.43301645	340	20	249.0926513	0	n/a	n/a	n/a	n/a
1288.767507	1.8	engage	2.674	n/a	n/a	n/a	n/a	n/a	0	96	328	0
1300.649953	2.7	forage	2.455	175.5216421	338.3333333	40	70.4617474	1	n/a	n/a	n/a	n/a
1309.032622	2.7	forage	4.471	-79.11578894	243.3333333	40	280.062346	0	n/a	n/a	n/a	n/a
1317.881946	1.8	engage	3.382	n/a	n/a	n/a	n/a	n/a	0	186.9	238.5	0
1329.264396	2.7	forage	2.536	-0.233249501	373.3333333	5	225.5	0	n/a	n/a	n/a	n/a
1337.030537	1.8	engage	2.433	n/a	n/a	n/a	n/a	n/a	0	16.75	92.25	0
1348.712884	2.7	forage	2.479	-33.24167798	341.6666667	40	247.5	0	n/a	n/a	n/a	n/a
1357.595655	1.8	engage	1.437	n/a	n/a	n/a	n/a	n/a	0	301.5	11.4	1
1368.011494	2.7	forage	2.261	-89.32249719	253.3333333	40	265.690584	0	n/a	n/a	n/a	n/a
1374.544274	1.8	engage	2.585	n/a	n/a	n/a	n/a	n/a	0	134.25	389.55	0
1387.276628	2.7	forage	3.38	-93.04748084	196.6666667	20	254.4203008	0	n/a	n/a	n/a	n/a
1393.792801	1.8	engage	1.793	n/a	n/a	n/a	n/a	n/a	0	290.4	217.8	1
1404.475264	2.7	forage	3.013	238.36891	465	5	25.31338967	1	n/a	n/a	n/a	n/a
1414.791159	2.7	forage	2.418	-5.885736801	336.6666667	5	257.5259293	0	n/a	n/a	n/a	n/a
1420.324169	1.8	engage	2.381	n/a	n/a	n/a	n/a	n/a	0	212.5	288.15	0
1430.773308	2.7	forage	2.211	243.9945258	455	40	15.14305115	1	n/a	n/a	n/a	n/a
1440.222561	2.7	forage	3.274	-12.09850611	313.3333333	5	253.0517328	0	n/a	n/a	n/a	n/a
1448.93866	1.8	engage	2.846	n/a	n/a	n/a	n/a	n/a	0	217.3	387.1	0
1462.324759	2.7	forage	4.461	199.5636588	383.3333333	40	52.77244605	1	n/a	n/a	n/a	n/a
1474.719933	2.7	forage	3.296	-20.43932901	281.6666667	5	244.1138524	0	n/a	n/a	n/a	n/a
1483.169344	1.8	engage	4.127	n/a	n/a	n/a	n/a	n/a	0	134.4	243	0
1495.93493	2.7	forage	2.434	227.9941116	470	5	36.35848297	1	n/a	n/a	n/a	n/a
1504.900931	2.7	forage	4.571	-22.49615546	331.6666667	20	267.0135054	0	n/a	n/a	n/a	n/a
1512.650389	1.8	engage	2.631	n/a	n/a	n/a	n/a	n/a	0	353.25	359.55	0
1524.049443	2.7	forage	5.176	-0.702957598	281.6666667	5	195.5859866	0	n/a	n/a	n/a	n/a
1533.44886	1.8	engage	2.584	n/a	n/a	n/a	n/a	n/a	0	40.85	157.7	0
1546.702054	2.7	forage	2.444	116.5825713	375	20	121	1	n/a	n/a	n/a	n/a
1554.830394	2.7	forage	3.666	63.08935164	326.6666667	5	172.3560183	0	n/a	n/a	n/a	n/a
1561.81326	1.8	engage	2.5	n/a	n/a	n/a	n/a	n/a	0	158.1	156	0
1575.300024	2.7	forage	3.301	129.9158409	250	5	51.46999648	1	n/a	n/a	n/a	n/a
1587.127999	2.7	forage	2.704	52.35493184	221.6666667	5	121.7012977	1	n/a	n/a	n/a	n/a
1598.898088	2.7	forage	3.726	-138.578606	176.6666667	20	269.5	0	n/a	n/a	n/a	n/a
1608.742988	1.8	engage	2.569	n/a	n/a	n/a	n/a	n/a	0	65.5	171.5	0
1621.941908	2.7	forage	4.276	23.89967305	288.3333333	40	193.5507017	0	n/a	n/a	n/a	n/a
1630.691311	1.8	engage	1.445	n/a	n/a	n/a	n/a	n/a	0	290.7	159.6	1
1641.744461	2.7	forage	4.129	-0.953027178	220	20	177.6595996	0	n/a	n/a	n/a	n/a
1651.289767	1.8	engage	4.214	n/a	n/a	n/a	n/a	n/a	0	45.65	102.3	0
1663.072158	2.7	forage	2.641	-85.73474842	281.6666667	40	280.3647201	0	n/a	n/a	n/a	n/a
1670.105025	1.8	engage	2.536	n/a	n/a	n/a	n/a	n/a	0	127.4	67.15	0
1679.620863	2.7	forage	3.951	-5.571761984	245	5	196.547055	0	n/a	n/a	n/a	n/a
1688.020301	1.8	engage	3.284	n/a	n/a	n/a	n/a	n/a	0	68.5	144	0
1702.202499	2.7	forage	3.053	-72.12197408	300	20	263.3526483	0	n/a	n/a	n/a	n/a
1708.552025	1.8	engage	2.301	n/a	n/a	n/a	n/a	n/a	0	432	57	1
1720.051106	2.7	forage	2.445	-59.13261238	266.6666667	5	236.1270811	0	n/a	n/a	n/a	n/a
1728.583802	1.8	engage	4.224	n/a	n/a	n/a	n/a	n/a	0	279	108	1
1743.882613	2.7	forage	3.67	-90.42441527	210	40	251.7675419	0	n/a	n/a	n/a	n/a
1752.015362	1.8	engage	1.544	n/a	n/a	n/a	n/a	n/a	0	280	205.8	1
1765.430995	2.7	forage	3.561	-130.4088426	188.3333333	20	272.8189226	0	n/a	n/a	n/a	n/a
1772.380518	1.8	engage	1.356	n/a	n/a	n/a	n/a	n/a	0	230	110.6	1
1780.49652	2.7	forage	3.345	193.4835873	311.6666667	5	20.58799859	1	n/a	n/a	n/a	n/a
1789.479129	2.7	forage	3.851	-55.58442399	205	5	229.1417685	0	n/a	n/a	n/a	n/a
1798.611801	1.8	engage	2.654	n/a	n/a	n/a	n/a	n/a	0	117.5	324	0